"rt","key_press","correct","choices","correct_choice","trial_duration","response_ends_trial","number_of_dots","number_of_sets","coherent_direction","coherence","dot_radius","dot_life","move_distance","aperture_width","aperture_height","dot_color","background_color","RDK_type","aperture_type","reinsert_type","frame_rate","frame_rate_array","number_of_frames","trial_type","trial_index","time_elapsed","internal_node_id"
"-1","-1","false","a,l","a","200","true","200","1","180","0.5","2","-1","1","600","400","white","gray","3","2","2","16.65272727272729","[16.594999999999914,16.320000000000164,16.704999999999927,16.450000000000045,16.845000000000027,17.499999999999773,15.820000000000391,16.904999999999745,17.200000000000273,15.824999999999818,17.0150000000001]","11","RDK","0","233","0.0-0.0-0.0"
"-1","-1","false","a,l","a","200","true","200","1","180","0.5","2","-1","1","600","400","white","gray","3","2","2","16.209166666666665","[11.144999999999982,16.825000000000045,16.554999999999836,16.819999999999936,17.519999999999982,15.89500000000021,17.034999999999854,16.12000000000012,17.63000000000011,16.299999999999955,16.169999999999845,16.49500000000012]","12","RDK","1","436","0.0-0.0-1.0"
"-1","-1","false","a,l","a","200","true","200","1","180","0.5","2","-1","1","600","400","white","gray","3","2","2","16.659583333333348","[16.925000000000182,16.789999999999964,16.089999999999918,16.704999999999927,16.710000000000036,16.74500000000012,16.899999999999864,16.279999999999973,16.950000000000045,16.664999999999964,16.715000000000146,16.440000000000055]","12","RDK","2","650","0.0-0.0-2.0"
"-1","-1","false","a,l","a","200","true","200","1","180","0.5","2","-1","1","600","400","white","gray","3","2","2","16.6618181818182","[17.315000000000055,16.02000000000021,16.384999999999764,17.565000000000055,15.75,16.855000000000018,16.550000000000182,16.69499999999971,16.575000000000045,17.25,16.320000000000164]","11","RDK","3","866","0.0-0.0-3.0"
"-1","-1","false","a,l","a","200","true","200","1","180","0.5","2","-1","1","600","400","white","gray","3","2","2","16.304999999999968","[12.279999999999745,16.605000000000018,16.590000000000146,16.845000000000027,16.564999999999827,17.465000000000146,16.350000000000136,17.625,15.279999999999973,16.7049999999997,16.819999999999936,16.529999999999973]","12","RDK","4","1068","0.0-0.0-4.0"
"-1","-1","false","a,l","a","200","true","200","1","180","0.5","2","-1","1","600","400","white","gray","3","2","2","16.653333333333347","[16.52500000000009,16.47499999999991,16.740000000000236,16.759999999999764,16.715000000000146,16.659999999999854,16.629999999999654,16.605000000000473,17.7800000000002,16.164999999999964,16.234999999999673,16.550000000000182]","12","RDK","5","1284","0.0-0.0-5.0"
"-1","-1","false","a,l","a","200","true","200","1","180","0.5","2","-1","1","600","400","white","gray","3","2","2","16.645833333333332","[16.609999999999673,16.11999999999989,16.955000000000382,16.575000000000273,17.424999999999727,15.970000000000255,16.734999999999673,16.565000000000055,16.72499999999991,16.675000000000182,16.575000000000273,16.81999999999971]","12","RDK","6","1501","0.0-0.0-6.0"
"-1","-1","false","a,l","a","200","true","200","1","180","0.5","2","-1","1","600","400","white","gray","3","2","2","16.654166666666658","[16.454999999999472,16.69000000000051,16.534999999999854,16.824999999999818,16.91000000000031,17.190000000000055,16.424999999999727,16.250000000000455,16.5949999999998,16.66000000000031,16.594999999999345,16.720000000000255]","12","RDK","7","1718","0.0-0.0-7.0"
"-1","-1","false","a,l","a","200","true","200","1","180","0.5","2","-1","1","600","400","white","gray","3","2","2","16.676249999999982","[17.389999999999418,15.990000000000236,16.559999999999945,16.63000000000011,16.66500000000042,16.749999999999545,16.704999999999927,16.5300000000002,17.595000000000255,16.329999999999927,16.204999999999927,16.764999999999873]","12","RDK","8","1935","0.0-0.0-8.0"
"-1","-1","false","a,l","a","200","true","200","1","180","0.5","2","-1","1","600","400","white","gray","3","2","2","16.63499999999999","[16.434999999999945,16.365000000000236,16.659999999999854,17.470000000000255,16.06999999999971,16.61999999999989,16.610000000000127,16.66000000000031,16.69499999999971,16.590000000000146,16.98999999999978,16.454999999999927]","12","RDK","9","2151","0.0-0.0-9.0"
"-1","-1","false","a,l","l","200","true","200","1","0","0.5","2","-1","1","600","400","white","gray","3","2","2","16.587500000000016","[16.25500000000011,15.994999999999436,16.71000000000049,16.659999999999854,16.90000000000009,17.06999999999971,16.144999999999982,16.640000000000327,16.659999999999854,16.73999999999978,16.640000000000327,16.63500000000022]","12","RDK","10","2367","0.0-0.0-10.0"
"-1","-1","false","a,l","l","200","true","200","1","0","0.5","2","-1","1","600","400","white","gray","3","2","2","16.675416666666706","[16.69500000000062,16.644999999999982,16.69499999999971,16.659999999999854,16.59999999999991,16.750000000000455,16.774999999999636,16.850000000000364,16.49499999999989,16.629999999999654,16.434999999999945,16.875000000000455]","12","RDK","11","2584","0.0-0.0-11.0"
"-1","-1","false","a,l","l","200","true","200","1","0","0.5","2","-1","1","600","400","white","gray","3","2","2","16.647499999999997","[17.009999999999764,15.940000000000055,16.80500000000029,17.549999999999727,15.864999999999782,16.539999999999964,16.675000000000182,16.765000000000327,16.704999999999927,16.605000000000018,16.5949999999998,16.715000000000146]","12","RDK","12","2802","0.0-0.0-12.0"
"-1","-1","false","a,l","l","200","true","200","1","0","0.5","2","-1","1","600","400","white","gray","3","2","2","16.6404166666667","[16.380000000000564,16.58999999999969,16.6550000000002,16.874999999999545,16.390000000000327,17.519999999999982,15.965000000000146,17.61499999999978,15.730000000000018,16.800000000000182,16.634999999999764,16.5300000000002]","12","RDK","13","3017","0.0-0.0-13.0"
"-1","-1","false","a,l","a","200","true","200","1","180","0.5","2","-1","1","600","400","white","gray","3","2","2","16.66583333333328","[16.599999999999454,18.884999999999764,15.320000000000164,15.680000000000746,16.7849999999994,16.695000000000164,16.6850000000004,16.609999999999673,17.730000000000473,15.924999999999272,16.425000000000182,16.649999999999636]","12","RDK","14","3235","0.0-0.0-14.0"
"-1","-1","false","a,l","a","200","true","200","1","180","0.5","2","-1","1","600","400","white","gray","3","2","2","16.626249999999953","[16.964999999999236,16.00500000000011,16.5600000000004,16.644999999999527,17.1850000000004,16.219999999999345,16.824999999999818,16.465000000000146,16.765000000000327,16.715000000000146,16.87499999999909,16.290000000000873]","12","RDK","15","3452","0.0-0.0-15.0"
"-1","-1","false","a,l","l","200","true","200","1","0","0.5","2","-1","1","600","400","white","gray","3","2","2","16.649166666666662","[16.5,16.61999999999989,16.659999999999854,16.675000000000182,16.710000000000036,16.625,16.784999999999854,17.6850000000004,15.599999999999454,16.664999999999964,16.69500000000062,16.56999999999971]","12","RDK","16","3668","0.0-0.0-16.0"
"-1","-1","false","a,l","l","200","true","200","1","0","0.5","2","-1","1","600","400","white","gray","3","2","2","16.664583333333365","[16.449999999999818,16.975000000000364,16.534999999999854,16.69499999999971,16.600000000000364,16.68499999999949,16.925000000000182,16.970000000000255,16.80999999999949,16.220000000000255,16.649999999999636,16.460000000000946]","12","RDK","17","3884","0.0-0.0-17.0"
"-1","-1","false","a,l","l","200","true","200","1","0","0.5","2","-1","1","600","400","white","gray","3","2","2","16.642916666666604","[16.6949999999988,16.75,16.68000000000029,16.25,16.670000000000073,16.69000000000051,16.61499999999978,16.664999999999964,16.765000000000327,16.659999999999854,16.889999999999418,16.38500000000022]","12","RDK","18","4101","0.0-0.0-18.0"
"-1","-1","false","a,l","a","200","true","200","1","180","0.5","2","-1","1","600","400","white","gray","3","2","2","16.63916666666667","[16.25500000000011,16.61499999999978,16.68500000000131,16.63499999999931,16.854999999999563,16.400000000000546,16.769999999999527,16.94500000000062,16.61999999999989,17.11499999999978,15.8700000000008,16.904999999998836]","12","RDK","19","4317","0.0-0.0-19.0"
"-1","-1","false","a,l","l","200","true","200","1","0","0.5","2","-1","1","600","400","white","gray","3","2","2","16.685833333333374","[17.350000000000364,15.819999999999709,16.824999999999818,16.625,16.824999999999818,16.50500000000011,16.76000000000022,16.590000000000146,17.295000000000073,16.159999999999854,16.61499999999978,16.860000000000582]","12","RDK","20","4535","0.0-0.0-20.0"
"-1","-1","false","a,l","a","200","true","200","1","180","0.5","2","-1","1","600","400","white","gray","3","2","2","16.622916666666697","[16.38000000000011,16.57000000000062,16.69999999999891,17.50500000000102,15.824999999999818,16.925000000000182,16.389999999999418,16.905000000000655,16.529999999998836,16.670000000000982,16.669999999999163,16.405000000000655]","12","RDK","21","4751","0.0-0.0-21.0"
"-1","-1","false","a,l","a","200","true","200","1","180","0.5","2","-1","1","600","400","white","gray","3","2","2","16.66541666666664","[16.649999999999636,16.57000000000062,16.75999999999931,16.68000000000029,16.75999999999931,17.215000000000146,15.925000000000182,17.514999999999418,15.960000000000946,16.524999999999636,16.734999999999673,16.69000000000051]","12","RDK","22","4968","0.0-0.0-22.0"
"-1","-1","false","a,l","l","200","true","200","1","0","0.5","2","-1","1","600","400","white","gray","3","2","2","16.681249999999938","[16.800000000000182,16.639999999999418,16.900000000000546,16.714999999999236,16.350000000000364,16.63000000000011,17.145000000000437,16.019999999999527,17.329999999999927,16.200000000000728,16.75,16.6949999999988]","12","RDK","23","5185","0.0-0.0-23.0"
"-1","-1","false","a,l","l","200","true","200","1","0","0.5","2","-1","1","600","400","white","gray","3","2","2","16.609166666666624","[16.68499999999949,16.01000000000022,16.715000000000146,17.350000000000364,16.414999999999054,16.19500000000062,16.55999999999949,16.9950000000008,16.31999999999971,16.63000000000011,16.720000000000255,16.714999999999236]","12","RDK","24","5401","0.0-0.0-24.0"
"-1","-1","false","a,l","l","200","true","200","1","0","0.5","2","-1","1","600","400","white","gray","3","2","2","16.672083333333376","[16.650000000000546,16.709999999999127,17.109999999999673,16.11500000000069,17.520000000000437,15.9399999999996,16.579999999999927,16.854999999999563,16.63500000000022,17.55500000000029,15.679999999999382,16.715000000001055]","12","RDK","25","5618","0.0-0.0-25.0"
"-1","-1","false","a,l","a","200","true","200","1","180","0.5","2","-1","1","600","400","white","gray","3","2","2","16.681249999999938","[16.38499999999931,16.88000000000102,16.459999999999127,16.69000000000051,16.88500000000022,16.519999999999527,16.904999999999745,16.515000000000327,16.795000000000073,16.449999999999818,16.860000000000582,16.829999999999018]","12","RDK","26","5835","0.0-0.0-26.0"
"-1","-1","false","a,l","l","200","true","200","1","0","0.5","2","-1","1","600","400","white","gray","3","2","2","16.658749999999902","[17.13000000000011,15.99499999999989,16.6899999999996,16.729999999999563,16.664999999999964,16.534999999999854,16.905000000000655,16.795000000000073,17.18499999999949,16.015000000000327,17.44499999999971,15.8149999999996]","12","RDK","27","6052","0.0-0.0-27.0"
"-1","-1","false","a,l","l","200","true","200","1","0","0.5","2","-1","1","600","400","white","gray","3","2","2","16.62916666666668","[16.340000000000146,16.42999999999938,16.480000000000473,16.81999999999971,16.780000000000655,16.904999999999745,16.424999999999272,17.165000000000873,16.99999999999909,15.900000000000546,16.68000000000029,16.625]","12","RDK","28","6268","0.0-0.0-28.0"
"-1","-1","false","a,l","l","200","true","200","1","0","0.5","2","-1","1","600","400","white","gray","3","2","2","16.662083333333385","[16.455000000000837,16.789999999999054,17.43000000000029,15.680000000000291,16.775000000000546,16.56999999999971,16.649999999999636,16.715000000000146,16.589999999999236,16.775000000000546,16.544999999999163,16.970000000001164]","12","RDK","29","6484","0.0-0.0-29.0"
"-1","-1","false","a,l","l","200","true","200","1","0","0.5","2","-1","1","600","400","white","gray","3","2","2","16.665000000000045","[16.475000000000364,16.604999999999563,16.535000000000764,16.835000000000036,16.959999999999127,16.575000000000728,16.68000000000029,16.469999999999345,16.770000000000437,16.549999999999272,16.860000000000582]","11","RDK","30","6701","0.0-0.0-30.0"
"-1","-1","false","a,l","a","200","true","200","1","180","0.5","2","-1","1","600","400","white","gray","3","2","2","16.311249999999973","[12.614999999998872,16.280000000000655,16.68000000000029,16.729999999999563,16.774999999999636,16.51000000000022,16.8100000000004,16.409999999999854,16.664999999999964,16.699999999999818,16.790000000000873,16.769999999999527]","12","RDK","31","6903","0.0-0.0-31.0"
"-1","-1","false","a,l","l","200","true","200","1","0","0.5","2","-1","1","600","400","white","gray","3","2","2","16.69250000000011","[16.44000000000051,16.73999999999978,16.69000000000051,17.399999999999636,16.015000000000327,16.55500000000029,16.75499999999829,16.7450000000008,16.530000000000655,16.719999999999345,16.735000000000582,16.985000000000582]","12","RDK","32","7120","0.0-0.0-32.0"
"-1","-1","false","a,l","l","200","true","200","1","0","0.5","2","-1","1","600","400","white","gray","3","2","2","16.617500000000064","[16.169999999998254,16.525000000001455,16.659999999999854,16.7450000000008,17.664999999998145,15.805000000000291,16.87500000000182,16.6299999999992,16.344999999999345,16.69000000000051,16.655000000000655,16.645000000000437]","12","RDK","33","7335","0.0-0.0-33.0"
"-1","-1","false","a,l","a","200","true","200","1","180","0.5","2","-1","1","600","400","white","gray","3","2","2","16.61125000000008","[15.850000000000364,16.779999999998836,16.665000000000873,16.609999999998763,16.665000000002692,16.81499999999869,16.584999999999127,17.670000000000073,15.829999999999927,16.469999999999345,16.75,16.645000000002256]","12","RDK","34","7552","0.0-0.0-34.0"
"-1","-1","false","a,l","l","200","true","200","1","0","0.5","2","-1","1","600","400","white","gray","3","2","2","16.66874999999997","[16.61499999999978,16.595000000001164,16.604999999999563,17.30500000000029,16.19499999999971,16.61499999999978,16.704999999999927,16.57499999999891,16.61499999999978,17.405000000000655,15.959999999999127,16.835000000000946]","12","RDK","35","7769","0.0-0.0-35.0"
"-1","-1","false","a,l","l","200","true","200","1","0","0.5","2","-1","1","600","400","white","gray","3","2","2","16.640833333333376","[16.725000000002183,16.834999999999127,16.05500000000029,17.19499999999971,16.43499999999949,16.48999999999978,16.530000000000655,16.669999999998254,16.720000000001164,16.600000000000364,16.68499999999949,16.75]","12","RDK","36","7985","0.0-0.0-36.0"
"-1","-1","false","a,l","l","200","true","200","1","0","0.5","2","-1","1","600","400","white","gray","3","2","2","16.622499999999945","[16.62499999999818,16.015000000001237,17.07499999999891,16.275000000001455,16.93999999999869,16.43499999999949,16.75,16.50500000000102,17.13500000000022,16.30000000000109,16.769999999998618,16.645000000000437]","12","RDK","37","8203","0.0-0.0-37.0"
"-1","-1","false","a,l","l","200","true","200","1","0","0.5","2","-1","1","600","400","white","gray","3","2","2","16.67999999999999","[16.289999999999054,16.909999999999854,16.784999999999854,17.080000000001746,16.279999999998836,16.850000000000364,16.450000000000728,16.715000000000146,16.69999999999891,16.610000000000582,16.604999999999563,16.88500000000022]","12","RDK","38","8420","0.0-0.0-38.0"
"-1","-1","false","a,l","a","200","true","200","1","180","0.5","2","-1","1","600","400","white","gray","3","2","2","16.62916666666676","[16.215000000001965,16.514999999999418,16.7549999999992,17.209999999999127,16.17500000000109,16.540000000000873,17.465000000000146,15.93499999999949,16.725000000000364,17.68000000000029,15.699999999998909,16.63500000000022]","12","RDK","39","8635","0.0-0.0-39.0"
"-1","-1","false","a,l","l","200","true","200","1","0","0.5","2","-1","1","600","400","white","gray","3","2","2","16.670454545454547","[16.764999999999418,16.540000000000873,16.729999999997744,16.280000000000655,16.910000000001673,16.489999999997963,16.980000000001382,16.61499999999978,16.844999999999345,16.650000000001455,16.56999999999971]","11","RDK","40","8850","0.0-0.0-40.0"
"-1","-1","false","a,l","a","200","true","200","1","180","0.5","2","-1","1","600","400","white","gray","3","2","2","16.511250000000018","[13.579999999999927,16.69499999999971,16.670000000000073,16.854999999999563,17.409999999999854,15.944999999999709,16.50000000000182,16.789999999999054,16.600000000000364,16.779999999998836,16.56000000000131,17.75]","12","RDK","41","9055","0.0-0.0-41.0"
"-1","-1","false","a,l","a","200","true","200","1","180","0.5","2","-1","1","600","400","white","gray","3","2","2","16.5945833333332","[15.68999999999869,16.69499999999971,16.69000000000051,16.639999999999418,16.730000000001382,16.519999999998618,16.68999999999869,17.355000000001382,16.174999999999272,16.605000000001382,16.679999999998472,16.665000000000873]","12","RDK","42","9270","0.0-0.0-42.0"
"-1","-1","false","a,l","a","200","true","200","1","180","0.5","2","-1","1","600","400","white","gray","3","2","2","16.696249999999964","[16.55500000000029,16.7549999999992,16.424999999999272,16.69000000000051,16.825000000000728,16.599999999998545,16.605000000001382,16.75,16.604999999999563,16.94000000000051,16.51000000000022,17.094999999999345]","12","RDK","43","9487","0.0-0.0-43.0"
"-1","-1","false","a,l","a","200","true","200","1","180","0.5","2","-1","1","600","400","white","gray","3","2","2","16.654583333333296","[16.62499999999818,16.605000000001382,16.590000000000146,17.595000000001164,15.850000000000364,16.80999999999949,16.604999999999563,17.19499999999971,16.045000000000073,16.625,16.909999999999854,16.399999999999636]","12","RDK","44","9704","0.0-0.0-44.0"
"-1","-1","false","a,l","l","200","true","200","1","0","0.5","2","-1","1","600","400","white","gray","3","2","2","16.63833333333332","[17.225000000000364,15.69000000000051,16.769999999998618,17.205000000001746,15.93499999999949,16.860000000000582,16.584999999999127,17.340000000000146,16.140000000001237,16.674999999999272,16.61499999999978,16.61999999999898]","12","RDK","45","9920","0.0-0.0-45.0"
"-1","-1","false","a,l","l","200","true","200","1","0","0.5","2","-1","1","600","400","white","gray","3","2","2","16.66333333333326","[16.284999999999854,16.75500000000102,17.549999999999272,15.94000000000051,16.589999999998327,16.6150000000016,16.575000000000728,16.834999999999127,16.68000000000029,16.56999999999971,16.655000000000655,16.909999999998035]","12","RDK","46","10137","0.0-0.0-46.0"
"-1","-1","false","a,l","l","200","true","200","1","0","0.5","2","-1","1","600","400","white","gray","3","2","2","16.670000000000073","[16.67000000000189,16.6349999999984,16.605000000001382,16.904999999998836,16.645000000000437,16.50500000000102,16.86999999999898,16.475000000000364,16.74499999999898,16.605000000001382,16.709999999999127]","11","RDK","47","10353","0.0-0.0-47.0"
"-1","-1","false","a,l","a","200","true","200","1","180","0.5","2","-1","1","600","400","white","gray","3","2","2","16.22583333333326","[11.889999999999418,16.049999999999272,16.670000000000073,16.765000000001237,16.81499999999869,16.63500000000022,16.575000000000728,16.594999999999345,16.895000000000437,16.774999999999636,16.4950000000008,16.549999999999272]","12","RDK","48","10555","0.0-0.0-48.0"
"-1","-1","false","a,l","a","200","true","200","1","180","0.5","2","-1","1","600","400","white","gray","3","2","2","16.692083333333358","[16.6349999999984,16.68500000000131,16.6299999999992,16.829999999999927,16.595000000001164,16.655000000000655,16.589999999998327,16.725000000000364,16.6200000000008,16.7549999999992,16.679999999998472,16.905000000002474]","12","RDK","49","10770","0.0-0.0-49.0"
"-1","-1","false","a,l","l","200","true","200","1","0","0.5","2","-1","1","600","400","white","gray","3","2","2","16.63874999999992","[16.274999999999636,16.710000000000946,16.584999999999127,16.69000000000051,17.3899999999976,16.275000000001455,17.774999999999636,15.230000000001382,16.834999999997308,16.710000000002765,16.69999999999891,16.48999999999978]","12","RDK","50","10987","0.0-0.0-50.0"
"-1","-1","false","a,l","a","200","true","200","1","180","0.5","2","-1","1","600","400","white","gray","3","2","2","16.64958333333334","[16.739999999997963,16.30000000000109,16.719999999999345,17.55999999999949,15.720000000001164,16.729999999999563,16.590000000000146,17.710000000000946,16.154999999998836,16.38500000000022,16.56499999999869,16.62000000000262]","12","RDK","51","11204","0.0-0.0-51.0"
"-1","-1","false","a,l","a","200","true","200","1","180","0.5","2","-1","1","600","400","white","gray","3","2","2","16.682500000000044","[16.665000000000873,16.645000000000437,16.609999999998763,17.7400000000016,15.844999999999345,16.610000000000582,16.409999999998035,16.81500000000233,16.644999999998618,16.704999999999927,16.63500000000022,16.86499999999978]","12","RDK","52","11421","0.0-0.0-52.0"
"-1","-1","false","a,l","l","200","true","200","1","0","0.5","2","-1","1","600","400","white","gray","3","2","2","16.675833333333383","[16.51000000000022,16.67500000000109,16.644999999998618,16.654999999998836,16.820000000001528,16.729999999999563,17.670000000000073,15.68499999999949,16.665000000000873,16.579999999999927,16.56500000000051,16.909999999999854]","12","RDK","53","11638","0.0-0.0-53.0"
"-1","-1","false","a,l","l","200","true","200","1","0","0.5","2","-1","1","600","400","white","gray","3","2","2","16.56333333333335","[16.114999999997963,15.954999999999927,16.595000000001164,16.730000000001382,16.6299999999992,16.69000000000051,16.799999999999272,16.795000000000073,16.74499999999898,16.36499999999978,16.56000000000131,16.780000000000655]","12","RDK","54","11853","0.0-0.0-54.0"
"-1","-1","false","a,l","a","200","true","200","1","180","0.5","2","-1","1","600","400","white","gray","3","2","2","16.66999999999992","[16.604999999999563,16.659999999999854,16.734999999998763,17.215000000000146,16.150000000001455,16.709999999999127,16.665000000000873,16.674999999999272,16.709999999999127,16.540000000000873,16.55000000000109,16.82499999999891]","12","RDK","55","12070","0.0-0.0-55.0"
"-1","-1","false","a,l","l","200","true","200","1","0","0.5","2","-1","1","600","400","white","gray","3","2","2","16.66874999999997","[16.579999999999927,16.729999999999563,16.81500000000051,16.480000000001382,16.649999999997817,16.665000000000873,16.700000000000728,16.76000000000022,16.584999999999127,16.669999999998254,16.87000000000262,16.519999999998618]","12","RDK","56","12288","0.0-0.0-56.0"
"-1","-1","false","a,l","a","200","true","200","1","180","0.5","2","-1","1","600","400","white","gray","3","2","2","16.553333333333285","[16.43000000000029,15.549999999999272,16.670000000000073,16.665000000000873,16.69499999999971,16.57499999999891,16.6299999999992,17.590000000000146,16.344999999999345,16.415000000000873,16.340000000001965,16.734999999998763]","12","RDK","57","12504","0.0-0.0-57.0"
"-1","-1","false","a,l","a","200","true","200","1","180","0.5","2","-1","1","600","400","white","gray","3","2","2","16.685416666666544","[16.700000000000728,16.61499999999978,16.674999999999272,17.100000000000364,16.344999999999345,16.655000000000655,16.405000000000655,16.87499999999818,16.63500000000022,16.700000000000728,16.68999999999869,16.829999999999927]","12","RDK","58","12720","0.0-0.0-58.0"
"-1","-1","false","a,l","l","200","true","200","1","0","0.5","2","-1","1","600","400","white","gray","3","2","2","16.6558333333334","[16.389999999999418,16.7450000000008,16.56999999999971,16.715000000001965,17.6349999999984,15.895000000000437,17.609999999998763,15.68000000000211,16.724999999998545,16.534999999999854,16.705000000001746,16.664999999999054]","12","RDK","59","12938","0.0-0.0-59.0"
"-1","-1","false","a,l","a","200","true","200","1","180","0.5","2","-1","1","600","400","white","gray","3","2","2","16.652916666666595","[16.904999999998836,17.375,15.590000000000146,16.56500000000051,16.670000000000073,17.799999999999272,15.645000000000437,17.479999999999563,16.17000000000189,16.389999999999418,16.69999999999891,16.545000000000073]","12","RDK","60","13154","0.0-0.0-60.0"
"-1","-1","false","a,l","l","200","true","200","1","0","0.5","2","-1","1","600","400","white","gray","3","2","2","16.652916666666595","[16.43000000000029,16.654999999998836,16.655000000000655,17.170000000000073,16.43000000000029,16.409999999998035,16.600000000000364,16.92000000000189,16.604999999999563,16.639999999999418,16.720000000001164,16.599999999998545]","12","RDK","61","13371","0.0-0.0-61.0"
"-1","-1","false","a,l","l","200","true","200","1","0","0.5","2","-1","1","600","400","white","gray","3","2","2","16.635833333333267","[16.289999999999054,16.69000000000051,16.6200000000008,16.644999999998618,16.860000000000582,16.56500000000051,17.545000000000073,15.899999999999636,16.584999999999127,16.610000000000582,16.730000000001382,16.589999999998327]","12","RDK","62","13588","0.0-0.0-62.0"
"-1","-1","false","a,l","l","200","true","200","1","0","0.5","2","-1","1","600","400","white","gray","3","2","2","16.628333333333405","[16.19000000000051,16.729999999999563,16.625,16.645000000000437,16.769999999998618,16.640000000001237,16.704999999999927,16.69499999999971,16.55500000000029,16.700000000000728,16.63500000000022,16.649999999999636]","12","RDK","63","13804","0.0-0.0-63.0"
"-1","-1","false","a,l","a","200","true","200","1","180","0.5","2","-1","1","600","400","white","gray","3","2","2","16.70458333333333","[16.465000000000146,16.669999999998254,16.715000000000146,17.049999999999272,16.210000000000946,16.94999999999891,16.375,16.704999999999927,16.850000000000364,16.55999999999949,16.63000000000102,17.275000000001455]","12","RDK","64","14022","0.0-0.0-64.0"
"-1","-1","false","a,l","l","200","true","200","1","0","0.5","2","-1","1","600","400","white","gray","3","2","2","16.66833333333337","[17.345000000001164,15.895000000000437,16.679999999998472,16.735000000000582,16.664999999999054,16.56000000000131,16.80999999999949,16.795000000000073,16.625,16.56000000000131,16.609999999998763,16.73999999999978]","12","RDK","65","14238","0.0-0.0-65.0"
"-1","-1","false","a,l","l","200","true","200","1","0","0.5","2","-1","1","600","400","white","gray","3","2","2","16.582499999999982","[16.045000000000073,16.235000000000582,16.68000000000029,16.704999999999927,16.649999999999636,17.44000000000051,15.704999999999927,16.86499999999978,16.825000000000728,17.56499999999869,15.610000000000582,16.664999999999054]","12","RDK","66","14455","0.0-0.0-66.0"
"-1","-1","false","a,l","a","200","true","200","1","180","0.5","2","-1","1","600","400","white","gray","3","2","2","16.672083333333376","[17.68999999999869,15.915000000002692,16.32499999999891,16.670000000000073,16.715000000000146,16.63500000000022,16.659999999999854,16.75,16.639999999999418,16.63000000000102,16.6299999999992,16.80500000000029]","12","RDK","67","14671","0.0-0.0-67.0"
"-1","-1","false","a,l","l","200","true","200","1","0","0.5","2","-1","1","600","400","white","gray","3","2","2","16.663333333333412","[16.4950000000008,16.670000000000073,16.600000000000364,16.69499999999971,16.840000000001965,16.529999999998836,16.829999999999927,16.670000000000073,16.600000000000364,16.679999999998472,16.61499999999978,16.735000000000582]","12","RDK","68","14888","0.0-0.0-68.0"
"-1","-1","false","a,l","a","200","true","200","1","180","0.5","2","-1","1","600","400","white","gray","3","2","2","16.601666666666915","[17.00000000000182,15.539999999999054,16.594999999999345,16.600000000000364,16.68000000000029,16.780000000000655,16.63000000000102,17.389999999999418,16.645000000000437,17.424999999999272,15.444999999999709,16.4900000000016]","12","RDK","69","15105","0.0-0.0-69.0"
"-1","-1","false","a,l","a","200","true","200","1","180","0.5","2","-1","1","600","400","white","gray","3","2","2","16.764090909090804","[16.50999999999658,16.67000000000189,16.705000000001746,17.19999999999891,16.31999999999971,16.43499999999767,16.695000000003347,16.774999999997817,16.585000000000946,16.68000000000029,17.829999999999927]","11","RDK","70","15321","0.0-0.0-70.0"
"-1","-1","false","a,l","l","200","true","200","1","0","0.5","2","-1","1","600","400","white","gray","3","2","2","16.265833333333223","[11.854999999999563,16.62500000000182,16.68000000000029,16.649999999999636,16.63500000000022,16.69499999999789,16.81999999999971,17.150000000001455,16.174999999999272,16.540000000000873,16.700000000000728,16.664999999997235]","12","RDK","71","15523","0.0-0.0-71.0"
"-1","-1","false","a,l","l","200","true","200","1","0","0.5","2","-1","1","600","400","white","gray","3","2","2","16.672499999999673","[17.029999999995198,16.075000000000728,16.915000000000873,17.284999999999854,16.56999999999971,15.905000000002474,16.68000000000029,16.719999999997526,16.63000000000102,16.845000000001164,16.764999999999418,16.649999999997817]","12","RDK","72","15739","0.0-0.0-72.0"
"-1","-1","false","a,l","l","200","true","200","1","0","0.5","2","-1","1","600","400","white","gray","3","2","2","16.649583333333187","[16.36999999999898,16.660000000003492,16.74499999999898,16.599999999998545,16.849999999998545,16.580000000001746,16.590000000000146,16.68000000000029,16.79500000000189,16.56999999999971,16.789999999997235,16.56499999999869]","12","RDK","73","15954","0.0-0.0-73.0"
"-1","-1","false","a,l","l","200","true","200","1","0","0.5","2","-1","1","600","400","white","gray","3","2","2","16.663333333333565","[16.459999999999127,16.654999999998836,16.640000000003056,16.849999999998545,16.62999999999738,17.135000000005675,15.974999999994907,17.73500000000422,15.930000000000291,16.375,16.804999999996653,16.770000000004075]","12","RDK","74","16172","0.0-0.0-74.0"
"-1","-1","false","a,l","a","200","true","200","1","180","0.5","2","-1","1","600","400","white","gray","3","2","2","16.64583333333303","[16.5099999999984,16.350000000002183,16.87999999999738,17.110000000000582,16.07999999999811,16.715000000000146,16.625000000003638,16.7599999999984,16.68000000000029,16.599999999998545,16.88000000000102,16.55999999999767]","12","RDK","75","16389","0.0-0.0-75.0"
"-1","-1","false","a,l","l","200","true","200","1","0","0.5","2","-1","1","600","400","white","gray","3","2","2","16.663333333332957","[16.6449999999968,16.5199999999968,16.710000000006403,17.19999999999709,16.125,16.82999999999811,16.610000000000582,17.3650000000016,15.8849999999984,16.720000000001164,16.739999999997963,16.610000000000582]","12","RDK","76","16606","0.0-0.0-76.0"
"-1","-1","false","a,l","l","200","true","200","1","0","0.5","2","-1","1","600","400","white","gray","3","2","2","16.647916666666486","[16.5099999999984,16.645000000000437,16.650000000001455,16.659999999999854,16.774999999997817,16.524999999997817,16.650000000005093,16.94499999999971,16.474999999998545,16.520000000000437,16.82999999999811,16.590000000000146]","12","RDK","77","16822","0.0-0.0-77.0"
"-1","-1","false","a,l","l","200","true","200","1","0","0.5","2","-1","1","600","400","white","gray","3","2","2","16.65583333333355","[17.099999999998545,15.905000000002474,16.665000000000873,16.80500000000029,16.790000000000873,16.45999999999549,16.640000000003056,16.69000000000233,16.679999999996653,16.854999999999563,17.085000000002765,16.19499999999971]","12","RDK","78","17039","0.0-0.0-78.0"
"-1","-1","false","a,l","a","200","true","200","1","180","0.5","2","-1","1","600","400","white","gray","3","2","2","16.66416666666646","[16.575000000000728,16.724999999994907,17.530000000002474,16.450000000000728,16.154999999998836,16.525000000001455,16.669999999998254,16.810000000004948,16.69499999999607,16.465000000000146,16.665000000000873,16.70499999999811]","12","RDK","79","17256","0.0-0.0-79.0"
"-1","-1","false","a,l","l","200","true","200","1","0","0.5","2","-1","1","600","400","white","gray","3","2","2","16.66374999999971","[16.55999999999767,16.650000000001455,16.584999999999127,16.68000000000029,16.68000000000029,16.715000000000146,17.455000000001746,15.8849999999984,16.7599999999984,16.650000000005093,16.789999999993597,16.55500000000029]","12","RDK","80","17473","0.0-0.0-80.0"
"-1","-1","false","a,l","l","200","true","200","1","0","0.5","2","-1","1","600","400","white","gray","3","2","2","16.67375000000023","[17.109999999996944,15.885000000002037,16.93000000000393,16.724999999994907,16.3650000000016,16.81999999999971,16.625,16.835000000002765,16.525000000001455,16.74499999999898,16.75500000000102,16.764999999999418]","12","RDK","81","17689","0.0-0.0-81.0"
"-1","-1","false","a,l","a","200","true","200","1","180","0.5","2","-1","1","600","400","white","gray","3","2","2","16.65583333333325","[16.2599999999984,16.68000000000029,16.674999999999272,16.735000000000582,16.68500000000131,17.799999999999272,15.400000000001455,17.275000000001455,16.119999999995343,16.640000000003056,16.74499999999898,16.854999999999563]","12","RDK","82","17905","0.0-0.0-82.0"
"-1","-1","false","a,l","a","200","true","200","1","180","0.5","2","-1","1","600","400","white","gray","3","2","2","16.65916666666696","[16.380000000004657,16.68000000000029,16.744999999995343,16.67500000000291,16.510000000002037,16.75999999999476,16.785000000003492,17.029999999998836,16.349999999998545,16.640000000003056,16.465000000000146,16.889999999999418]","12","RDK","83","18123","0.0-0.0-83.0"
"-1","-1","false","a,l","l","200","true","200","1","0","0.5","2","-1","1","600","400","white","gray","3","2","2","16.65916666666696","[17.17000000000189,17.889999999999418,14.700000000000728,16.82999999999811,16.4800000000032,16.669999999998254,16.760000000002037,16.654999999998836,16.56999999999607,16.685000000004948,17.364999999997963,16.135000000002037]","12","RDK","84","18340","0.0-0.0-84.0"
"-1","-1","false","a,l","l","200","true","200","1","0","0.5","2","-1","1","600","400","white","gray","3","2","2","16.67541666666663","[16.594999999997526,16.74000000000524,16.68999999999869,17.145000000000437,16.165000000000873,17.664999999997235,15.674999999999272,16.68500000000131,16.75,16.625,16.719999999997526,16.650000000001455]","12","RDK","85","18557","0.0-0.0-85.0"
"-1","-1","false","a,l","l","200","true","200","1","0","0.5","2","-1","1","600","400","white","gray","3","2","2","16.65083333333314","[16.344999999997526,16.6150000000016,16.67000000000189,16.70499999999811,16.915000000000873,16.55999999999767,16.56499999999869,16.88000000000102,16.460000000002765,16.804999999996653,16.6050000000032,16.68499999999767]","12","RDK","86","18772","0.0-0.0-86.0"
"-1","-1","false","a,l","l","200","true","200","1","0","0.5","2","-1","1","600","400","white","gray","3","2","2","16.668333333333067","[16.724999999998545,17.345000000001164,15.909999999996217,16.625000000003638,16.749999999996362,16.600000000002183,16.75500000000102,16.7599999999984,16.970000000001164,15.970000000001164,16.989999999997963,16.61999999999898]","12","RDK","87","18989","0.0-0.0-87.0"
"-1","-1","false","a,l","l","200","true","200","1","0","0.5","2","-1","1","600","400","white","gray","3","2","2","16.683750000000146","[16.69000000000233,16.659999999999854,16.70499999999811,16.600000000002183,16.770000000000437,16.719999999997526,16.635000000002037,16.56999999999971,16.68500000000131,16.659999999996217,16.850000000002183,16.659999999999854]","12","RDK","88","19207","0.0-0.0-88.0"
"-1","-1","false","a,l","l","200","true","200","1","0","0.5","2","-1","1","600","400","white","gray","3","2","2","16.666666666666668","[16.714999999996508,16.450000000004366,16.664999999997235,16.68000000000029,16.6150000000016,16.774999999997817,16.6150000000016,16.875,16.484999999996944,16.69000000000233,16.799999999999272,16.635000000002037]","12","RDK","89","19423","0.0-0.0-89.0"
"-1","-1","false","a,l","l","200","true","200","1","0","0.5","2","-1","1","600","400","white","gray","3","2","2","16.658750000000207","[16.69499999999971,17.07999999999811,16.090000000003783,16.664999999997235,16.63000000000102,16.659999999999854,16.75,16.610000000000582,16.584999999999127,16.45499999999811,17.1050000000032,16.580000000001746]","12","RDK","90","19639","0.0-0.0-90.0"
"-1","-1","false","a,l","a","200","true","200","1","180","0.5","2","-1","1","600","400","white","gray","3","2","2","16.64416666666663","[16.320000000003347,16.649999999997817,16.650000000001455,16.6349999999984,16.585000000002765,17.87999999999738,15.644999999996799,16.695000000003347,16.649999999997817,16.87000000000262,16.44499999999971,16.70499999999811]","12","RDK","91","19856","0.0-0.0-91.0"
"-1","-1","false","a,l","l","200","true","200","1","0","0.5","2","-1","1","600","400","white","gray","3","2","2","16.7179166666668","[17.334999999999127,15.830000000001746,16.785000000003492,16.57999999999811,16.86999999999898,16.450000000000728,16.80999999999767,16.705000000001746,16.56499999999869,16.525000000001455,16.87999999999738,17.280000000002474]","12","RDK","92","20074","0.0-0.0-92.0"
"-1","-1","false","a,l","l","200","true","200","1","0","0.5","2","-1","1","600","400","white","gray","3","2","2","16.665833333333467","[16.56000000000131,16.6349999999984,16.6150000000016,16.799999999999272,16.600000000002183,16.62999999999738,16.74500000000262,16.56999999999607,16.750000000003638,17.43000000000029,16.375,16.279999999998836]","12","RDK","93","20290","0.0-0.0-93.0"
"-1","-1","false","a,l","a","200","true","200","1","180","0.5","2","-1","1","600","400","white","gray","3","2","2","16.662500000000062","[16.700000000000728,16.5099999999984,16.635000000002037,17.209999999999127,17.155000000002474,15.7599999999984,16.74500000000262,16.749999999996362,16.485000000000582,16.68999999999869,16.735000000000582,16.575000000000728]","12","RDK","94","20506","0.0-0.0-94.0"
"-1","-1","false","a,l","a","200","true","200","1","180","0.5","2","-1","1","600","400","white","gray","3","2","2","16.657083333333503","[17.284999999999854,15.979999999999563,16.6150000000016,16.649999999997817,16.6050000000032,16.734999999996944,16.6150000000016,17.039999999997235,17.25,15.790000000004511,16.624999999996362,16.695000000003347]","12","RDK","95","20723","0.0-0.0-95.0"
"-1","-1","false","a,l","a","200","true","200","1","180","0.5","2","-1","1","600","400","white","gray","3","2","2","16.664999999999964","[16.30000000000291,16.82999999999811,16.794999999998254,16.525000000001455,16.88000000000102,16.889999999999418,16.229999999999563,16.700000000000728,16.610000000000582,17.714999999996508,15.99500000000262,16.5099999999984]","12","RDK","96","20941","0.0-0.0-96.0"
"-1","-1","false","a,l","l","200","true","200","1","0","0.5","2","-1","1","600","400","white","gray","3","2","2","16.659999999999854","[16.474999999998545,16.780000000002474,16.714999999996508,16.87000000000262,17.36999999999898,15.869999999998981,16.630000000004657,16.57499999999709,16.659999999999854,16.659999999999854,16.735000000000582,16.57999999999811]","12","RDK","97","21157","0.0-0.0-97.0"
"-1","-1","false","a,l","l","200","true","200","1","0","0.5","2","-1","1","600","400","white","gray","3","2","2","16.66875000000012","[17.235000000000582,16.100000000002183,16.81999999999971,16.715000000000146,16.404999999998836,16.784999999999854,16.735000000000582,16.44499999999971,17.014999999999418,16.50500000000102,16.68000000000029,16.584999999999127]","12","RDK","98","21374","0.0-0.0-98.0"
"-1","-1","false","a,l","a","200","true","200","1","180","0.5","2","-1","1","600","400","white","gray","3","2","2","16.65083333333314","[16.81999999999607,16.479999999999563,16.54500000000189,16.470000000001164,16.669999999998254,17.30500000000029,16.639999999999418,16.140000000003056,16.589999999996508,17.340000000000146,16.55000000000291,16.2599999999984]","12","RDK","99","21591","0.0-0.0-99.0"
"-1","-1","false","a,l","a","200","true","200","1","180","0.5","2","-1","1","600","400","white","gray","3","2","2","16.647500000000036","[16.330000000001746,16.779999999998836,16.55500000000029,16.69000000000233,17.864999999997963,15.600000000002183,16.659999999999854,16.55500000000029,16.714999999996508,16.780000000002474,16.4900000000016,16.749999999996362]","12","RDK","100","21807","0.0-0.0-100.0"
"-1","-1","false","a,l","l","200","true","200","1","0","0.5","2","-1","1","600","400","white","gray","3","2","2","16.6570833333332","[16.385000000002037,16.624999999996362,16.4900000000016,16.8849999999984,16.735000000000582,16.645000000000437,16.68499999999767,16.4900000000016,16.885000000002037,16.534999999996217,16.685000000004948,16.839999999996508]","12","RDK","101","22025","0.0-0.0-101.0"
"-1","-1","false","a,l","l","200","true","200","1","0","0.5","2","-1","1","600","400","white","gray","3","2","2","16.6527272727273","[17.299999999995634,17.200000000004366,15.209999999999127,17.0099999999984,16.410000000003492,16.735000000000582,16.589999999996508,16.645000000000437,16.834999999999127,17.17000000000189,16.075000000000728]","11","RDK","102","22240","0.0-0.0-102.0"
"-1","-1","false","a,l","a","200","true","200","1","180","0.5","2","-1","1","600","400","white","gray","3","2","2","16.282499999999953","[11.909999999999854,16.700000000000728,16.639999999999418,16.68000000000029,16.659999999999854,17.6150000000016,15.93999999999869,16.614999999997963,16.4900000000016,16.6150000000016,16.840000000000146,16.68499999999767]","12","RDK","103","22442","0.0-0.0-103.0"
"-1","-1","false","a,l","l","200","true","200","1","0","0.5","2","-1","1","600","400","white","gray","3","2","2","16.633333333333212","[16.239999999997963,17.209999999999127,16.075000000000728,16.69499999999971,16.790000000000873,16.590000000000146,16.709999999999127,16.639999999999418,16.54500000000189,16.844999999997526,16.660000000003492,16.599999999998545]","12","RDK","104","22658","0.0-0.0-104.0"
"-1","-1","false","a,l","l","200","true","200","1","0","0.5","2","-1","1","600","400","white","gray","3","2","2","16.651250000000193","[16.475000000002183,16.590000000000146,16.719999999997526,16.69000000000233,16.770000000000437,16.590000000000146,16.590000000000146,16.86999999999898,16.55000000000291,16.549999999995634,17.6050000000032,15.81499999999869]","12","RDK","105","22874","0.0-0.0-105.0"
"-1","-1","false","a,l","a","200","true","200","1","180","0.5","2","-1","1","600","400","white","gray","3","2","2","16.645000000000135","[16.3650000000016,16.735000000000582,16.56999999999971,16.75,16.590000000000146,17.459999999999127,16.18000000000029,16.760000000002037,16.339999999996508,16.660000000003492,16.779999999995198,16.55000000000291]","12","RDK","106","23091","0.0-0.0-106.0"
"-1","-1","false","a,l","a","200","true","200","1","180","0.5","2","-1","1","600","400","white","gray","3","2","2","16.660416666666606","[16.385000000002037,16.770000000000437,16.67000000000189,16.68499999999767,16.700000000000728,16.86999999999898,16.475000000002183,16.739999999997963,16.705000000001746,17.044999999998254,16.165000000000873,16.714999999996508]","12","RDK","107","23308","0.0-0.0-107.0"
"-1","-1","false","a,l","l","200","true","200","1","0","0.5","2","-1","1","600","400","white","gray","3","2","2","16.667500000000473","[16.36000000000422,16.794999999998254,16.584999999999127,16.765000000003056,17.595000000001164,15.804999999996653,16.68000000000029,16.54500000000189,16.69999999999709,16.715000000003783,16.589999999996508,16.875000000003638]","12","RDK","108","23525","0.0-0.0-108.0"
"-1","-1","false","a,l","a","200","true","200","1","180","0.5","2","-1","1","600","400","white","gray","3","2","2","16.67208333333353","[16.604999999999563,16.709999999999127,16.575000000000728,16.715000000000146,16.69999999999709,17.4800000000032,15.970000000001164,18.18000000000029,15.174999999999272,16.50499999999738,16.860000000000582,16.590000000003783]","12","RDK","109","23741","0.0-0.0-109.0"
"-1","-1","false","a,l","l","200","true","200","1","0","0.5","2","-1","1","600","400","white","gray","3","2","2","16.668333333333674","[16.665000000000873,16.68500000000131,16.624999999996362,16.88000000000102,16.55500000000029,16.94499999999971,16.29500000000189,16.584999999999127,17.674999999999272,15.855000000003201,16.62999999999738,16.625000000003638]","12","RDK","110","23958","0.0-0.0-110.0"
"-1","-1","false","a,l","l","200","true","200","1","0","0.5","2","-1","1","600","400","white","gray","3","2","2","16.649999999999938","[16.639999999999418,16.260000000002037,16.604999999999563,16.599999999998545,16.674999999999272,16.850000000002183,16.650000000001455,16.68499999999767,16.705000000001746,16.75500000000102,16.584999999999127,16.789999999997235]","12","RDK","111","24175","0.0-0.0-111.0"
"-1","-1","false","a,l","l","200","true","200","1","0","0.5","2","-1","1","600","400","white","gray","3","2","2","16.662916666666813","[16.534999999999854,16.69499999999971,16.540000000000873,16.669999999998254,16.830000000001746,16.68000000000029,17.040000000000873,17.474999999998545,15.360000000000582,16.735000000000582,16.595000000001164,16.799999999999272]","12","RDK","112","24392","0.0-0.0-112.0"
"-1","-1","false","a,l","a","200","true","200","1","180","0.5","2","-1","1","600","400","white","gray","3","2","2","16.680833333333187","[16.56000000000131,16.94499999999971,16.3650000000016,16.729999999995925,16.69499999999971,16.610000000000582,16.695000000003347,16.794999999998254,16.669999999998254,17.31000000000131,15.969999999997526,16.825000000000728]","12","RDK","113","24608","0.0-0.0-113.0"
"-1","-1","false","a,l","l","200","true","200","1","0","0.5","2","-1","1","600","400","white","gray","3","2","2","16.632916666666762","[16.43999999999869,16.465000000000146,16.645000000000437,16.570000000003347,16.875,16.715000000000146,16.489999999997963,16.610000000000582,17.404999999998836,16.790000000000873,15.930000000000291,16.659999999999854]","12","RDK","114","24824","0.0-0.0-114.0"
"-1","-1","false","a,l","a","200","true","200","1","180","0.5","2","-1","1","600","400","white","gray","3","2","2","16.560416666666544","[15.330000000001746,16.68499999999767,16.614999999997963,16.68000000000393,16.674999999999272,16.844999999997526,16.520000000000437,16.7300000000032,16.74499999999898,16.589999999996508,16.56500000000233,16.74499999999898]","12","RDK","115","25041","0.0-0.0-115.0"
"-1","-1","false","a,l","a","200","true","200","1","180","0.5","2","-1","1","600","400","white","gray","3","2","2","16.66958333333332","[16.529999999998836,16.88000000000102,16.595000000001164,16.770000000000437,16.784999999996217,16.549999999999272,16.69000000000233,16.534999999999854,16.600000000002183,16.834999999999127,16.665000000000873,16.599999999998545]","12","RDK","116","25257","0.0-0.0-116.0"
"-1","-1","false","a,l","a","200","true","200","1","180","0.5","2","-1","1","600","400","white","gray","3","2","2","16.659999999999854","[16.669999999998254,16.43500000000131,16.68999999999869,16.610000000000582,17.389999999999418,16.07999999999811,16.665000000000873,16.80500000000029,17.264999999999418,15.819999999999709,16.764999999999418,16.725000000002183]","12","RDK","117","25475","0.0-0.0-117.0"
"-1","-1","false","a,l","a","200","true","200","1","180","0.5","2","-1","1","600","400","white","gray","3","2","2","16.67666666666658","[16.540000000000873,16.659999999999854,16.584999999999127,16.80500000000029,16.650000000001455,16.674999999999272,16.715000000000146,16.86999999999898,16.575000000004366,16.63499999999476,16.685000000004948,16.724999999994907]","12","RDK","118","25692","0.0-0.0-118.0"
"-1","-1","false","a,l","l","200","true","200","1","0","0.5","2","-1","1","600","400","white","gray","3","2","2","16.676250000000135","[16.785000000003492,16.534999999996217,17.780000000002474,15.654999999998836,16.640000000003056,16.63000000000102,16.63999999999578,16.655000000002474,16.735000000000582,16.709999999999127,16.720000000001164,16.62999999999738]","12","RDK","119","25908","0.0-0.0-119.0"
"-1","-1","false","a,l","a","200","true","200","1","180","0.5","2","-1","1","600","400","white","gray","3","2","2","16.659166666666653","[17.094999999997526,15.854999999999563,16.825000000000728,16.549999999999272,17.57999999999811,15.970000000001164,17.349999999998545,16.18500000000131,16.31500000000233,16.734999999996944,16.88000000000102,16.570000000003347]","12","RDK","120","26125","0.0-0.0-120.0"
"-1","-1","false","a,l","l","200","true","200","1","0","0.5","2","-1","1","600","400","white","gray","3","2","2","16.653750000000098","[16.56499999999869,16.63000000000102,16.700000000000728,16.709999999999127,16.584999999999127,17.139999999999418,16.1150000000016,17.875,15.625,16.61999999999898,16.640000000003056,16.639999999999418]","12","RDK","121","26342","0.0-0.0-121.0"
"-1","-1","false","a,l","a","200","true","200","1","180","0.5","2","-1","1","600","400","white","gray","3","2","2","16.646666666666533","[17.030000000002474,16.154999999995198,16.31999999999971,16.8650000000016,16.640000000003056,16.75499999999738,16.56999999999971,16.68999999999869,16.729999999999563,16.910000000003492,17.169999999998254,15.924999999999272]","12","RDK","122","26558","0.0-0.0-122.0"
"-1","-1","false","a,l","l","200","true","200","1","0","0.5","2","-1","1","600","400","white","gray","3","2","2","16.61916666666669","[16.080000000001746,16.729999999999563,16.68000000000029,16.525000000001455,17.344999999997526,16.25500000000102,16.514999999999418,16.775000000001455,16.57999999999811,16.68499999999767,16.67500000000291,16.584999999999127]","12","RDK","123","26776","0.0-0.0-123.0"
"-1","-1","false","a,l","l","200","true","200","1","0","0.5","2","-1","1","600","400","white","gray","3","2","2","16.620833333333394","[16.020000000000437,16.665000000000873,16.700000000000728,16.614999999997963,16.729999999999563,16.8650000000016,16.534999999996217,16.645000000000437,16.705000000001746,16.57999999999811,16.610000000000582,16.780000000002474]","12","RDK","124","26993","0.0-0.0-124.0"
"-1","-1","false","a,l","a","200","true","200","1","180","0.5","2","-1","1","600","400","white","gray","3","2","2","16.66875000000012","[17.034999999999854,16.104999999999563,17.56500000000233,15.844999999997526,16.81500000000233,16.4900000000016,16.599999999998545,16.6449999999968,17.674999999999272,16.04500000000189,16.7400000000016,16.465000000000146]","12","RDK","125","27209","0.0-0.0-125.0"
"-1","-1","false","a,l","l","200","true","200","1","0","0.5","2","-1","1","600","400","white","gray","3","2","2","16.645833333333332","[16.549999999999272,16.534999999999854,16.659999999999854,16.639999999999418,16.975000000002183,16.929999999996653,16.104999999999563,16.55000000000291,16.984999999996944,16.6050000000032,16.56499999999869,16.650000000001455]","12","RDK","126","27426","0.0-0.0-126.0"
"-1","-1","false","a,l","a","200","true","200","1","180","0.5","2","-1","1","600","400","white","gray","3","2","2","22.131111111111142","[15.854999999999563,16.715000000000146,16.575000000000728,16.735000000000582,16.719999999997526,17.020000000000437,55.41500000000087,27.479999999999563,16.665000000000873]","9","RDK","127","27642","0.0-0.0-127.0"
"-1","-1","false","a,l","l","200","true","200","1","0","0.5","2","-1","1","600","400","white","gray","3","2","2","16.66875000000012","[16.63000000000102,16.56499999999869,16.775000000005093,16.739999999997963,16.659999999999854,16.724999999998545,16.44499999999971,16.79500000000189,16.599999999998545,16.840000000000146,17.75500000000102,15.494999999998981]","12","RDK","128","27859","0.0-0.0-128.0"
"-1","-1","false","a,l","a","200","true","200","1","180","0.5","2","-1","1","600","400","white","gray","3","2","2","16.607916666666522","[16.919999999998254,15.73500000000422,16.794999999998254,16.720000000001164,16.590000000000146,16.790000000000873,16.549999999995634,16.760000000002037,16.70499999999811,16.665000000000873,16.695000000003347,16.369999999995343]","12","RDK","129","28076","0.0-0.0-129.0"
"-1","-1","false","a,l","a","200","true","200","1","180","0.5","2","-1","1","600","400","white","gray","3","2","2","16.613333333333077","[16.0199999999968,16.659999999999854,16.68500000000131,16.604999999999563,16.7400000000016,16.594999999997526,16.709999999999127,17.395000000000437,16.014999999999418,16.80500000000029,16.390000000003056,16.739999999997963]","12","RDK","130","28293","0.0-0.0-130.0"
"-1","-1","false","a,l","l","200","true","200","1","0","0.5","2","-1","1","600","400","white","gray","3","2","2","16.660000000000156","[16.825000000000728,16.340000000000146,16.770000000000437,16.599999999998545,16.75500000000102,16.54500000000189,16.794999999998254,16.650000000001455,17.299999999999272,15.979999999999563,17.43999999999869,15.920000000001892]","12","RDK","131","28509","0.0-0.0-131.0"
"-1","-1","false","a,l","l","200","true","200","1","0","0.5","2","-1","1","600","400","white","gray","3","2","2","16.636666666666315","[16.94499999999971,15.869999999998981,16.875,17.30500000000029,15.974999999998545,16.700000000000728,16.63000000000102,16.709999999999127,16.584999999999127,16.69499999999971,16.69499999999971,16.654999999998836]","12","RDK","132","28726","0.0-0.0-132.0"
"-1","-1","false","a,l","l","200","true","200","1","0","0.5","2","-1","1","600","400","white","gray","3","2","2","16.667499999999865","[16.654999999998836,16.614999999997963,16.645000000000437,16.63000000000102,16.665000000000873,16.674999999999272,16.455000000001746,17.0099999999984,16.764999999999418,16.529999999998836,16.6150000000016,16.75]","12","RDK","133","28942","0.0-0.0-133.0"
"-1","-1","false","a,l","l","200","true","200","1","0","0.5","2","-1","1","600","400","white","gray","3","2","2","16.675000000000182","[16.525000000001455,16.455000000001746,16.844999999997526,16.87000000000262,16.929999999996653,16.135000000002037,16.784999999999854,16.590000000000146,16.665000000000873,16.68499999999767,16.764999999999418,16.850000000002183]","12","RDK","134","29160","0.0-0.0-134.0"
"-1","-1","false","a,l","a","200","true","200","1","180","0.5","2","-1","1","600","400","white","gray","3","2","2","16.65083333333314","[16.56999999999607,16.280000000002474,16.68499999999767,16.590000000003783,16.989999999997963,16.529999999998836,16.660000000003492,16.700000000000728,16.764999999999418,16.69499999999607,16.854999999999563,16.4900000000016]","12","RDK","135","29377","0.0-0.0-135.0"
"-1","-1","false","a,l","l","200","true","200","1","0","0.5","2","-1","1","600","400","white","gray","3","2","2","16.628750000000156","[16.150000000001455,16.665000000000873,16.68500000000131,16.594999999997526,16.750000000003638,16.584999999999127,16.81499999999869,17.399999999997817,15.950000000000728,16.549999999999272,16.7400000000016,16.659999999999854]","12","RDK","136","29593","0.0-0.0-136.0"
"-1","-1","false","a,l","a","200","true","200","1","180","0.5","2","-1","1","600","400","white","gray","3","2","2","19.980999999999767","[16.80999999999767,15.974999999998545,17.390000000003056,16.239999999997963,16.645000000000437,16.669999999998254,16.645000000000437,41.62000000000262,25.424999999999272,16.389999999999418]","10","RDK","137","29810","0.0-0.0-137.0"
"-1","-1","false","a,l","a","200","true","200","1","180","0.5","2","-1","1","600","400","white","gray","3","2","2","16.666666666666668","[16.600000000002183,16.36999999999898,16.989999999997963,16.68000000000393,16.43999999999869,16.645000000000437,16.760000000002037,16.614999999997963,16.6349999999984,16.729999999999563,16.729999999999563,16.80500000000029]","12","RDK","138","30027","0.0-0.0-138.0"
"-1","-1","false","a,l","l","200","true","200","1","0","0.5","2","-1","1","600","400","white","gray","3","2","2","16.65333333333304","[16.610000000000582,16.69499999999607,16.67000000000189,16.49499999999898,16.614999999997963,17.790000000000873,15.674999999999272,16.7300000000032,16.645000000000437,16.56999999999607,16.700000000000728,16.645000000000437]","12","RDK","139","30242","0.0-0.0-139.0"
"-1","-1","false","a,l","a","200","true","200","1","180","0.5","2","-1","1","600","400","white","gray","3","2","2","16.636666666666923","[16.13000000000102,16.654999999998836,16.760000000002037,16.529999999998836,16.845000000001164,16.584999999999127,16.715000000000146,16.570000000003347,16.654999999995198,16.735000000000582,16.770000000000437,16.69000000000233]","12","RDK","140","30460","0.0-0.0-140.0"
"-1","-1","false","a,l","l","200","true","200","1","0","0.5","2","-1","1","600","400","white","gray","3","2","2","16.628333333333405","[16.575000000000728,16.095000000001164,16.849999999994907,16.695000000003347,16.700000000000728,16.544999999998254,16.860000000000582,17.034999999999854,16.520000000000437,16.264999999999418,17.260000000002037,16.139999999999418]","12","RDK","141","30676","0.0-0.0-141.0"
"-1","-1","false","a,l","l","200","true","200","1","0","0.5","2","-1","1","600","400","white","gray","3","2","2","16.61208333333343","[15.989999999997963,16.5099999999984,16.905000000002474,16.56499999999869,16.56000000000131,17.635000000002037,15.779999999998836,17.56500000000233,15.819999999996071,16.580000000001746,16.625,16.81000000000131]","12","RDK","142","30894","0.0-0.0-142.0"
"-1","-1","false","a,l","a","200","true","200","1","180","0.5","2","-1","1","600","400","white","gray","3","2","2","16.64083333333292","[17.114999999997963,15.8650000000016,16.599999999998545,16.665000000000873,16.799999999999272,16.470000000001164,16.734999999996944,16.70499999999811,16.74000000000524,16.664999999997235,16.770000000000437,16.55999999999767]","12","RDK","143","31110","0.0-0.0-143.0"
"-1","-1","false","a,l","a","200","true","200","1","180","0.5","2","-1","1","600","400","white","gray","3","2","2","16.640000000000025","[16.31999999999971,16.74499999999898,16.63000000000102,16.664999999993597,16.825000000004366,16.715000000000146,16.719999999997526,16.955000000005384,16.409999999999854,16.389999999999418,16.720000000001164,16.584999999999127]","12","RDK","144","31327","0.0-0.0-144.0"
"-1","-1","false","a,l","a","200","true","200","1","180","0.5","2","-1","1","600","400","white","gray","3","2","2","16.68863636363676","[16.73500000000422,17.87999999999738,15.470000000001164,16.600000000002183,16.514999999999418,17.344999999997526,16.320000000003347,17.51499999999578,15.755000000004657,16.70999999999549,16.7300000000032]","11","RDK","145","31542","0.0-0.0-145.0"
"-1","-1","false","a,l","a","200","true","200","1","180","0.5","2","-1","1","600","400","white","gray","3","2","2","16.290000000000266","[12.110000000000582,16.575000000004366,16.729999999992287,17.955000000001746,15.514999999999418,16.580000000005384,16.814999999995052,16.60500000000684,16.525000000001455,17.51499999999578,15.895000000000437,16.659999999999854]","12","RDK","146","31744","0.0-0.0-146.0"
"-1","-1","false","a,l","l","200","true","200","1","0","0.5","2","-1","1","600","400","white","gray","3","2","2","16.626363636363916","[16.30500000000393,16.415000000000873,16.80500000000029,16.595000000001164,17.864999999997963,15.665000000000873,16.57999999999447,16.68000000000029,16.955000000009022,17.27499999999418,15.75]","11","RDK","147","31959","0.0-0.0-147.0"
"-1","-1","false","a,l","a","200","true","200","1","180","0.5","2","-1","1","600","400","white","gray","3","2","2","16.298333333333478","[12.130000000004657,16.80000000000291,16.75999999999476,16.55999999999767,16.715000000003783,16.794999999998254,16.515000000006694,16.62999999999738,16.580000000001746,16.89999999999418,16.60000000000582,16.594999999993888]","12","RDK","148","32161","0.0-0.0-148.0"
"-1","-1","false","a,l","l","200","true","200","1","0","0.5","2","-1","1","600","400","white","gray","3","2","2","16.662083333333914","[16.530000000006112,17.564999999995052,15.775000000008731,16.62999999999738,17.0199999999968,16.38499999999476,16.630000000004657,17,16.68000000000029,16.525000000001455,16.62999999999738,16.575000000004366]","12","RDK","149","32377","0.0-0.0-149.0"
"-1","-1","false","a,l","a","200","true","200","1","180","0.5","2","-1","1","600","400","white","gray","3","2","2","16.556250000000244","[15.239999999997963,16.690000000009604,16.889999999992142,16.5,16.67000000000553,16.989999999997963,16.669999999998254,17.544999999998254,15.700000000004366,16.599999999998545,16.60000000000582,16.57999999999447]","12","RDK","150","32593","0.0-0.0-150.0"
"-1","-1","false","a,l","l","200","true","200","1","0","0.5","2","-1","1","600","400","white","gray","3","2","2","16.673749999999927","[16.860000000000582,16.435000000004948,16.624999999992724,16.77500000000873,16.689999999995052,16.760000000002037,16.6050000000032,16.614999999997963,16.669999999998254,16.674999999995634,16.645000000004075,16.729999999995925]","12","RDK","151","32811","0.0-0.0-151.0"
"-1","-1","false","a,l","l","200","true","200","1","0","0.5","2","-1","1","600","400","white","gray","3","2","2","16.53416666666696","[14.965000000003783,16.635000000002037,16.714999999996508,16.479999999995925,16.88499999999476,16.835000000006403,16.580000000001746,16.619999999995343,16.770000000004075,16.57999999999447,16.695000000006985,16.650000000001455]","12","RDK","152","33028","0.0-0.0-152.0"
"-1","-1","false","a,l","l","200","true","200","1","0","0.5","2","-1","1","600","400","white","gray","3","2","2","16.621666666666595","[16.4800000000032,16.369999999995343,16.595000000001164,16.764999999999418,16.705000000001746,16.525000000001455,16.735000000000582,17.345000000001164,16.2699999999968,16.364999999997963,16.610000000000582,16.69499999999971]","12","RDK","153","33244","0.0-0.0-153.0"
"-1","-1","false","a,l","a","200","true","200","1","180","0.5","2","-1","1","600","400","white","gray","3","2","2","16.649583333333794","[16.364999999997963,16.700000000004366,17.57499999999709,15.85000000000582,16.825000000004366,16.59999999999127,16.505000000004657,16.659999999996217,17.655000000006112,15.720000000001164,16.854999999995925,16.485000000000582]","12","RDK","154","33461","0.0-0.0-154.0"
"-1","-1","false","a,l","a","200","true","200","1","180","0.5","2","-1","1","600","400","white","gray","3","2","2","16.637916666667177","[16.450000000004366,16.5199999999968,16.764999999999418,17.68000000000029,15.864999999997963,16.685000000004948,16.62999999999738,16.62999999999738,16.845000000001164,16.450000000004366,16.624999999992724,16.510000000009313]","12","RDK","155","33678","0.0-0.0-155.0"
"-1","-1","false","a,l","a","200","true","200","1","180","0.5","2","-1","1","600","400","white","gray","3","2","2","16.626666666667006","[16.84500000000844,16.70999999999185,16.62000000000262,15.834999999999127,16.860000000000582,16.69999999999709,16.464999999996508,16.67000000000553,16.720000000001164,16.67500000000291,16.669999999998254,16.75]","12","RDK","156","33894","0.0-0.0-156.0"
"-1","-1","false","a,l","a","200","true","200","1","180","0.5","2","-1","1","600","400","white","gray","3","2","2","16.68791666666645","[16.49500000000262,16.760000000002037,16.735000000000582,16.610000000000582,16.739999999997963,16.67000000000553,16.719999999993888,16.55999999999767,16.830000000001746,16.5,17.25,16.38499999999476]","12","RDK","157","34112","0.0-0.0-157.0"
"-1","-1","false","a,l","l","200","true","200","1","0","0.5","2","-1","1","600","400","white","gray","3","2","2","16.640909090909357","[17.474999999998545,15.500000000007276,16.775000000001455,17.364999999997963,16.02499999999418,16.620000000009895,16.634999999987485,16.880000000004657,16.560000000004948,16.50499999999738,16.709999999999127]","11","RDK","158","34327","0.0-0.0-158.0"
"-1","-1","false","a,l","a","200","true","200","1","180","0.5","2","-1","1","600","400","white","gray","3","2","2","16.243333333333187","[12.244999999995343,16.375000000007276,16.1449999999968,16.54500000000553,16.875,16.54999999998836,17.49000000000524,16.130000000004657,16.474999999998545,16.70499999999447,16.700000000004366,16.68499999999767]","12","RDK","159","34530","0.0-0.0-159.0"
"-1","-1","false","a,l","a","200","true","200","1","180","0.5","2","-1","1","600","400","white","gray","3","2","2","16.657083333333503","[16.43499999999767,16.650000000001455,16.610000000000582,16.80999999999767,16.85000000000582,16.434999999990396,16.695000000006985,16.74500000000262,16.72499999999127,17.150000000001455,16.095000000001164,16.685000000004948]","12","RDK","160","34745","0.0-0.0-160.0"
"-1","-1","false","a,l","a","200","true","200","1","180","0.5","2","-1","1","600","400","white","gray","3","2","2","16.64249999999932","[17.62999999999738,15.389999999992142,16.96500000001106,16.52999999999156,16.669999999998254,16.765000000006694,16.735000000000582,16.62999999999738,16.43000000000029,16.604999999995925,16.80999999999767,16.55000000000291]","12","RDK","161","34961","0.0-0.0-161.0"
"-1","-1","false","a,l","l","200","true","200","1","0","0.5","2","-1","1","600","400","white","gray","3","2","2","16.704583333332874","[15.625,17.469999999993888,16.00499999999738,16.660000000003492,16.760000000002037,16.845000000001164,16.554999999993015,16.390000000006694,16.734999999993306,16.685000000004948,16.775000000001455,17.94999999999709]","12","RDK","162","35179","0.0-0.0-162.0"
"-1","-1","false","a,l","a","200","true","200","1","180","0.5","2","-1","1","600","400","white","gray","3","2","2","16.65333333333304","[16.375,16.77499999999418,16.520000000004075,16.80000000000291,16.80999999999767,16.635000000002037,16.610000000000582,16.69499999999971,16.525000000001455,16.664999999993597,16.62000000000262,16.80999999999767]","12","RDK","163","35394","0.0-0.0-163.0"
"-1","-1","false","a,l","l","200","true","200","1","0","0.5","2","-1","1","600","400","white","gray","3","2","2","16.673333333332874","[16.55500000000029,17.81999999999971,15.529999999998836,16.57499999999709,16.724999999998545,16.630000000004657,16.744999999995343,16.785000000003492,16.57499999999709,16.6449999999968,16.71500000001106,16.77999999999156]","12","RDK","164","35612","0.0-0.0-164.0"
"-1","-1","false","a,l","a","200","true","200","1","180","0.5","2","-1","1","600","400","white","gray","3","2","2","16.65374999999949","[16.999999999992724,16.150000000001455,16.640000000006694,17.114999999990687,16.955000000009022,15.819999999992433,16.81500000000233,17.325000000004366,15.979999999995925,17.635000000002037,15.790000000000873,16.619999999995343]","12","RDK","165","35828","0.0-0.0-165.0"
"-1","-1","false","a,l","l","200","true","200","1","0","0.5","2","-1","1","600","400","white","gray","3","2","2","16.63750000000012","[16.18000000000029,16.639999999999418,16.785000000003492,16.80500000000029,16.3949999999968,16.75,16.779999999998836,16.55000000000291,16.69499999999971,16.614999999997963,17.389999999999418,16.06500000000233]","12","RDK","166","36045","0.0-0.0-166.0"
"-1","-1","false","a,l","a","200","true","200","1","180","0.5","2","-1","1","600","400","white","gray","3","2","2","16.68000000000029","[16.610000000000582,16.77500000000873,16.6449999999968,16.709999999999127,16.7699999999968,16.645000000004075,16.610000000000582,16.6449999999968,16.55000000000291,16.784999999996217,16.705000000001746,16.709999999999127]","12","RDK","167","36262","0.0-0.0-167.0"
"-1","-1","false","a,l","a","200","true","200","1","180","0.5","2","-1","1","600","400","white","gray","3","2","2","16.634583333333165","[16.260000000002037,16.739999999997963,16.580000000001746,16.69000000000233,16.584999999999127,16.64999999999418,16.655000000006112,16.75499999999738,16.580000000001746,16.94999999999709,16.56999999999971,16.599999999998545]","12","RDK","168","36478","0.0-0.0-168.0"
"-1","-1","false","a,l","a","200","true","200","1","180","0.5","2","-1","1","600","400","white","gray","3","2","2","16.673333333333478","[16.56999999999971,16.664999999993597,17.16000000001077,16.174999999995634,17.37999999999738,16.044999999998254,16.780000000006112,16.889999999999418,16.294999999998254,16.780000000006112,16.674999999995634,16.665000000000873]","12","RDK","169","36695","0.0-0.0-169.0"
"-1","-1","false","a,l","l","200","true","200","1","0","0.5","2","-1","1","600","400","white","gray","3","2","2","16.55958333333304","[15.304999999993015,16.555000000007567,16.794999999990978,16.590000000003783,16.764999999999418,16.665000000000873,16.50999999999476,16.720000000001164,16.710000000006403,16.845000000001164,16.610000000000582,16.6449999999968]","12","RDK","170","36912","0.0-0.0-170.0"
"-1","-1","false","a,l","a","200","true","200","1","180","0.5","2","-1","1","600","400","white","gray","3","2","2","16.665833333333165","[17.084999999999127,16.135000000002037,16.714999999996508,17.375,15.810000000004948,16.7699999999968,16.6449999999968,16.72500000000582,16.674999999995634,16.69499999999971,16.645000000004075,16.714999999996508]","12","RDK","171","37129","0.0-0.0-171.0"
"-1","-1","false","a,l","l","200","true","200","1","0","0.5","2","-1","1","600","400","white","gray","3","2","2","16.64833333333263","[16.444999999992433,16.645000000004075,16.525000000001455,16.720000000001164,16.860000000000582,16.75499999999738,16.44499999999971,16.68000000000029,16.790000000000873,16.625,16.669999999998254,16.619999999995343]","12","RDK","172","37345","0.0-0.0-172.0"
"-1","-1","false","a,l","l","200","true","200","1","0","0.5","2","-1","1","600","400","white","gray","3","2","2","16.65083333333314","[16.455000000001746,17.62999999999738,15.659999999996217,16.654999999998836,16.84500000000844,16.56999999999971,16.659999999996217,17.599999999998545,15.760000000002037,16.69499999999971,16.74000000000524,16.539999999993597]","12","RDK","173","37561","0.0-0.0-173.0"
"-1","-1","false","a,l","a","200","true","200","1","180","0.5","2","-1","1","600","400","white","gray","3","2","2","16.63541666666606","[17.25499999999738,15.884999999994761,17.110000000000582,16.044999999998254,17.724999999998545,15.79500000000553,16.56500000000233,16.75999999999476,16.55000000000291,16.779999999998836,16.69499999999971,16.459999999999127]","12","RDK","174","37778","0.0-0.0-174.0"
"-1","-1","false","a,l","a","200","true","200","1","180","0.5","2","-1","1","600","400","white","gray","3","2","2","16.66750000000017","[16.714999999996508,16.669999999998254,16.4800000000032,16.705000000001746,17.289999999993597,16.270000000004075,16.404999999998836,16.75,16.400000000001455,17.064999999995052,16.4800000000032,16.780000000006112]","12","RDK","175","37995","0.0-0.0-175.0"
"-1","-1","false","a,l","a","200","true","200","1","180","0.5","2","-1","1","600","400","white","gray","3","2","2","16.68208333333314","[16.915000000000873,16.415000000000873,16.62999999999738,16.620000000009895,16.864999999990687,16.560000000004948,16.599999999998545,16.81999999999971,16.8550000000032,16.625,16.50499999999738,16.77499999999418]","12","RDK","176","38213","0.0-0.0-176.0"
"-1","-1","false","a,l","l","200","true","200","1","0","0.5","2","-1","1","600","400","white","gray","3","2","2","16.639166666666522","[17.110000000007858,16.444999999992433,16.705000000001746,15.935000000004948,16.814999999995052,16.68000000000029,16.514999999999418,16.770000000004075,17.604999999995925,15.75499999999738,16.68000000000029,16.654999999998836]","12","RDK","177","38429","0.0-0.0-177.0"
"-1","-1","false","a,l","a","200","true","200","1","180","0.5","2","-1","1","600","400","white","gray","3","2","2","16.63500000000022","[16.40000000000873,16.664999999993597,16.68000000000029,17.69000000000233,15.805000000000291,16.689999999995052,16.605000000010477,16.669999999998254,16.659999999996217,16.610000000000582,16.47500000000582,16.669999999990978]","12","RDK","178","38647","0.0-0.0-178.0"
"-1","-1","false","a,l","a","200","true","200","1","180","0.5","2","-1","1","600","400","white","gray","3","2","2","16.674583333334038","[16.65000000000873,16.540000000000873,16.674999999995634,16.669999999998254,16.840000000003783,16.714999999996508,16.345000000001164,16.845000000001164,16.849999999998545,16.500000000007276,17.909999999996217,15.555000000000291]","12","RDK","179","38863","0.0-0.0-179.0"
"-1","-1","false","a,l","l","200","true","200","1","0","0.5","2","-1","1","600","400","white","gray","3","2","2","16.63791666666657","[16.014999999999418,16.69499999999971,16.955000000001746,16.55999999999767,16.87000000000262,16.69499999999971,16.5,16.62000000000262,17.334999999999127,16.064999999995052,17.25,16.095000000001164]","12","RDK","180","39079","0.0-0.0-180.0"
"-1","-1","false","a,l","a","200","true","200","1","180","0.5","2","-1","1","600","400","white","gray","3","2","2","16.67083333333297","[16.5199999999968,16.650000000001455,16.69999999999709,17.39999999999418,16.1050000000032,16.705000000001746,16.68000000000029,16.57499999999709,16.630000000004657,16.659999999996217,16.595000000001164,16.830000000001746]","12","RDK","181","39296","0.0-0.0-181.0"
"-1","-1","false","a,l","a","200","true","200","1","180","0.5","2","-1","1","600","400","white","gray","3","2","2","16.640000000000025","[16.35000000000582,16.599999999998545,16.814999999995052,16.890000000006694,16.27999999999156,16.79500000000553,16.625,16.825000000004366,16.62999999999738,16.474999999998545,16.67500000000291,16.719999999993888]","12","RDK","182","39513","0.0-0.0-182.0"
"-1","-1","false","a,l","l","200","true","200","1","0","0.5","2","-1","1","600","400","white","gray","3","2","2","16.657916666667006","[17.239999999997963,15.67500000000291,16.8949999999968,16.7300000000032,16.554999999993015,17.015000000006694,18.339999999996508,14.760000000002037,16.535000000003492,16.69999999999709,16.845000000001164,16.6050000000032]","12","RDK","183","39729","0.0-0.0-183.0"
"-1","-1","false","a,l","l","200","true","200","1","0","0.5","2","-1","1","600","400","white","gray","3","2","2","16.66136363636443","[16.61500000000524,16.72499999999127,16.605000000010477,16.63499999999476,16.729999999995925,16.700000000004366,16.660000000003492,16.7300000000032,16.664999999993597,16.625,16.585000000006403]","11","RDK","184","39945","0.0-0.0-184.0"
"-1","-1","false","a,l","a","200","true","200","1","180","0.5","2","-1","1","600","400","white","gray","3","2","2","16.308333333333696","[12.154999999998836,17.31500000000233,16,16.735000000000582,16.735000000000582,16.62000000000262,16.689999999995052,16.535000000003492,16.705000000001746,16.82499999999709,16.68000000000029,16.705000000001746]","12","RDK","185","40147","0.0-0.0-185.0"
"-1","-1","false","a,l","l","200","true","200","1","0","0.5","2","-1","1","600","400","white","gray","3","2","2","16.522916666666788","[15.150000000001455,16.42500000000291,16.599999999998545,16.669999999998254,16.780000000006112,16.614999999997963,16.92500000000291,16.45999999999185,16.395000000004075,17.5,16.87999999999738,15.875]","12","RDK","186","40363","0.0-0.0-186.0"
"-1","-1","false","a,l","a","200","true","200","1","180","0.5","2","-1","1","600","400","white","gray","3","2","2","16.657083333333503","[16.35000000000582,16.69999999999709,16.599999999998545,16.635000000002037,16.69499999999971,17.875,15.645000000004075,16.719999999993888,16.535000000003492,16.64999999999418,16.590000000003783,16.889999999999418]","12","RDK","187","40580","0.0-0.0-187.0"
"-1","-1","false","a,l","l","200","true","200","1","0","0.5","2","-1","1","600","400","white","gray","3","2","2","16.650000000000244","[16.2699999999968,17.030000000006112,16.50499999999738,16.564999999995052,16.710000000006403,16.849999999998545,16.614999999997963,16.630000000004657,16.62000000000262,16.854999999995925,16.56999999999971,16.580000000001746]","12","RDK","188","40797","0.0-0.0-188.0"
"-1","-1","false","a,l","a","200","true","200","1","180","0.5","2","-1","1","600","400","white","gray","3","2","2","16.638333333333623","[17.145000000004075,15.799999999995634,16.55500000000029,16.810000000004948,17.834999999999127,15.544999999998254,16.709999999999127,16.639999999999418,16.700000000004366,17.034999999996217,17.010000000002037,15.875]","12","RDK","189","41013","0.0-0.0-189.0"
"-1","-1","false","a,l","a","200","true","200","1","180","0.5","2","-1","1","600","400","white","gray","3","2","2","16.673749999999927","[16.720000000001164,16.639999999999418,16.68499999999767,16.62999999999738,16.92500000000291,17.235000000000582,15.720000000001164,16.62999999999738,16.8949999999968,17.54500000000553,15.730000000003201,16.729999999995925]","12","RDK","190","41230","0.0-0.0-190.0"
"-1","-1","false","a,l","l","200","true","200","1","0","0.5","2","-1","1","600","400","white","gray","3","2","2","16.668749999999516","[17.439999999995052,15.819999999999709,16.599999999998545,16.639999999999418,17.090000000003783,16.415000000000873,16.744999999995343,16.67000000000553,16.414999999993597,16.910000000003492,17.775000000001455,15.50499999999738]","12","RDK","191","41447","0.0-0.0-191.0"
"-1","-1","false","a,l","a","200","true","200","1","180","0.5","2","-1","1","600","400","white","gray","3","2","2","16.629583333333358","[16.935000000004948,15.874999999992724,17.2300000000032,16.104999999995925,16.900000000001455,16.505000000004657,17.479999999995925,16.130000000004657,16.339999999996508,16.900000000001455,17.084999999999127,16.06999999999971]","12","RDK","192","41663","0.0-0.0-192.0"
"-1","-1","false","a,l","l","200","true","200","1","0","0.5","2","-1","1","600","400","white","gray","3","2","2","16.65416666666715","[16.56500000000233,16.530000000006112,16.744999999995343,16.82499999999709,16.654999999998836,16.49500000000262,16.99500000000262,17.270000000004075,15.75499999999738,16.94499999999971,16.505000000004657,16.564999999995052]","12","RDK","193","41880","0.0-0.0-193.0"
"-1","-1","false","a,l","a","200","true","200","1","180","0.5","2","-1","1","600","400","white","gray","3","2","2","16.647083333333285","[16.375,16.645000000004075,16.639999999992142,16.770000000004075,16.62999999999738,16.584999999999127,16.739999999997963,16.665000000000873,17.5,15.875,16.630000000004657,16.709999999999127]","12","RDK","194","42096","0.0-0.0-194.0"
"-1","-1","false","a,l","a","200","true","200","1","180","0.5","2","-1","1","600","400","white","gray","3","2","2","16.66958333333302","[17.414999999993597,15.80000000000291,16.56500000000233,17.6050000000032,15.759999999994761,16.77499999999418,16.655000000006112,16.645000000004075,17.50499999999738,15.845000000001164,16.614999999997963,16.849999999998545]","12","RDK","195","42313","0.0-0.0-195.0"
"-1","-1","false","a,l","l","200","true","200","1","0","0.5","2","-1","1","600","400","white","gray","3","2","2","16.663333333333867","[16.645000000004075,16.68499999999767,16.659999999996217,16.54500000000553,16.81500000000233,16.68000000000029,16.659999999996217,16.614999999997963,17.69499999999971,15.680000000000291,17.04500000000553,16.235000000000582]","12","RDK","196","42529","0.0-0.0-196.0"
"-1","-1","false","a,l","l","200","true","200","1","0","0.5","2","-1","1","600","400","white","gray","3","2","2","16.647916666666788","[16.139999999999418,16.654999999998836,17.1050000000032,16.169999999998254,17.2699999999968,16.400000000001455,16.54500000000553,16.779999999998836,16.6449999999968,16.659999999996217,17.639999999999418,15.765000000006694]","12","RDK","197","42747","0.0-0.0-197.0"
"-1","-1","false","a,l","a","200","true","200","1","180","0.5","2","-1","1","600","400","white","gray","3","2","2","16.62208333333365","[16.335000000006403,16.205000000001746,17.20499999999447,16.325000000004366,16.75499999999738,16.529999999998836,16.525000000001455,16.799999999995634,16.820000000006985,16.554999999993015,16.770000000004075,16.639999999999418]","12","RDK","198","42965","0.0-0.0-198.0"
"-1","-1","false","a,l","l","200","true","200","1","0","0.5","2","-1","1","600","400","white","gray","3","2","2","16.665000000000266","[16.665000000000873,16.56999999999971,16.580000000001746,16.614999999990687,16.875000000007276,16.625,16.419999999998254,16.830000000001746,16.720000000001164,16.689999999995052,16.830000000001746,16.560000000004948]","12","RDK","199","43180","0.0-0.0-199.0"
"-1","-1","false","a,l","a","200","true","200","1","180","0.5","2","-1","1","600","400","white","gray","3","2","2","16.68458333333304","[16.599999999998545,16.68000000000029,16.68499999999767,16.74500000000262,16.69000000000233,17.215000000003783,16.099999999998545,16.714999999996508,16.599999999998545,16.94999999999709,17.544999999998254,15.690000000002328]","12","RDK","200","43398","0.0-0.0-200.0"
"-1","-1","false","a,l","a","200","true","200","1","180","0.5","2","-1","1","600","400","white","gray","3","2","2","16.63208333333326","[16.969999999993888,15.825000000004366,16.639999999992142,16.68000000000029,16.700000000004366,17.789999999993597,15.60000000000582,16.599999999998545,16.75499999999738,16.56999999999971,16.645000000004075,16.810000000004948]","12","RDK","201","43614","0.0-0.0-201.0"
"-1","-1","false","a,l","a","200","true","200","1","180","0.5","2","-1","1","600","400","white","gray","3","2","2","16.620000000000193","[16.1050000000032,16.61500000000524,16.56999999999971,16.739999999997963,16.650000000001455,16.64999999999418,17.87999999999738,15.67000000000553,16.75,16.525000000001455,16.724999999998545,16.55999999999767]","12","RDK","202","43831","0.0-0.0-202.0"
"-1","-1","false","a,l","l","200","true","200","1","0","0.5","2","-1","1","600","400","white","gray","3","2","2","16.675416666666933","[16.630000000004657,17.70499999999447,15.590000000003783,16.735000000000582,16.764999999999418,16.539999999993597,16.74000000000524,16.74000000000524,16.819999999992433,16.44999999999709,16.675000000010186,16.714999999996508]","12","RDK","203","44048","0.0-0.0-203.0"
"-1","-1","false","a,l","l","200","true","200","1","0","0.5","2","-1","1","600","400","white","gray","3","2","2","16.63249999999971","[16.760000000002037,16.165000000000873,16.709999999999127,17.529999999998836,15.959999999999127,16.910000000003492,16.314999999995052,17.224999999998545,16.06500000000233,16.55500000000029,16.75,16.6449999999968]","12","RDK","204","44265","0.0-0.0-204.0"
"-1","-1","false","a,l","a","200","true","200","1","180","0.5","2","-1","1","600","400","white","gray","3","2","2","16.64624999999978","[17.32499999999709,15.559999999997672,16.69499999999971,16.640000000006694,16.56999999999971,16.720000000001164,17.75499999999738,15.785000000003492,16.70999999999185,16.685000000004948,16.50999999999476,16.80000000000291]","12","RDK","205","44482","0.0-0.0-205.0"
"-1","-1","false","a,l","l","200","true","200","1","0","0.5","2","-1","1","600","400","white","gray","3","2","2","16.64374999999988","[16.325000000004366,17.665000000000873,15.619999999995343,16.91500000000815,16.664999999993597,16.7300000000032,16.439999999995052,16.93000000000029,16.55999999999767,16.42000000000553,16.79500000000553,16.65999999998894]","12","RDK","206","44698","0.0-0.0-206.0"
"-1","-1","false","a,l","a","200","true","200","1","180","0.5","2","-1","1","600","400","white","gray","3","2","2","16.650416666666086","[16.724999999998545,16.374999999992724,16.835000000006403,16.43000000000029,16.80999999999767,16.610000000000582,16.825000000004366,16.604999999995925,16.709999999999127,16.639999999999418,16.6449999999968,16.595000000001164]","12","RDK","207","44915","0.0-0.0-207.0"
"-1","-1","false","a,l","a","200","true","200","1","180","0.5","2","-1","1","600","400","white","gray","3","2","2","16.666666666667272","[16.820000000006985,16.719999999993888,16.4800000000032,17.869999999995343,15.625,16.834999999999127,16.30000000000291,16.79500000000553,17.489999999997963,15.860000000000582,16.584999999999127,16.62000000000262]","12","RDK","208","45131","0.0-0.0-208.0"
"-1","-1","false","a,l","a","200","true","200","1","180","0.5","2","-1","1","600","400","white","gray","3","2","2","16.670000000000073","[16.5,16.729999999995925,16.690000000009604,18.199999999989814,15.270000000004075,16.69999999999709,16.4800000000032,16.654999999998836,16.860000000000582,16.6449999999968,16.67000000000553,16.639999999999418]","12","RDK","209","45349","0.0-0.0-209.0"
"-1","-1","false","a,l","l","200","true","200","1","0","0.5","2","-1","1","600","400","white","gray","3","2","2","16.6579166666664","[16.70499999999447,16.415000000000873,16.685000000004948,16.59999999999127,17.85000000000582,15.75499999999738,16.56500000000233,16.604999999995925,16.570000000006985,16.705000000001746,16.749999999992724,16.69000000000233]","12","RDK","210","45565","0.0-0.0-210.0"
"-1","-1","false","a,l","l","200","true","200","1","0","0.5","2","-1","1","600","400","white","gray","3","2","2","16.660416666666304","[16.639999999992142,16.74500000000262,16.724999999998545,16.520000000004075,16.849999999998545,16.510000000002037,16.664999999993597,16.755000000004657,16.540000000000873,16.575000000004366,16.674999999995634,16.724999999998545]","12","RDK","211","45780","0.0-0.0-211.0"
"-1","-1","false","a,l","a","200","true","200","1","180","0.5","2","-1","1","600","400","white","gray","3","2","2","16.670999999999914","[16.55999999999767,16.755000000004657,16.59999999999127,17.525000000001455,15.849999999998545,16.625,16.69999999999709,16.66500000000815,16.80999999999767,16.62000000000262]","10","RDK","212","45996","0.0-0.0-212.0"
"-1","-1","false","a,l","a","200","true","200","1","180","0.5","2","-1","1","600","400","white","gray","3","2","2","17.774545454545162","[28.94499999999971,16.514999999999418,16.705000000001746,16.614999999990687,16.980000000010477,16.359999999993306,16.7300000000032,17.5,15.764999999999418,16.720000000001164,16.68499999999767]","11","RDK","213","46200","0.0-0.0-213.0"
"-1","-1","false","a,l","l","200","true","200","1","0","0.5","2","-1","1","600","400","white","gray","3","2","2","16.66750000000017","[16.705000000001746,16.584999999999127,16.665000000000873,16.700000000004366,16.664999999993597,16.639999999999418,16.700000000004366,16.6449999999968,16.709999999999127,16.630000000004657,16.694999999992433,16.67000000000553]","12","RDK","214","46414","0.0-0.0-214.0"
"-1","-1","false","a,l","l","200","true","200","1","0","0.5","2","-1","1","600","400","white","gray","3","2","2","50.02375000000211","[133.52999999999884,34.015000000006694,15.834999999999127,16.715000000003783]","4","RDK","215","46631","0.0-0.0-215.0"
"-1","-1","false","a,l","a","200","true","200","1","180","0.5","2","-1","1","600","400","white","gray","3","2","2","16.604583333333114","[16.525000000001455,16.089999999996508,17.290000000000873,16.025000000001455,16.68000000000029,16.62999999999738,16.714999999996508,17.345000000001164,16.25,17.055000000007567,15.984999999993306,16.665000000000873]","12","RDK","216","46847","0.0-0.0-216.0"
"-1","-1","false","a,l","a","200","true","200","1","180","0.5","2","-1","1","600","400","white","gray","3","2","2","20.059000000000378","[16.60000000000582,16.650000000001455,16.974999999998545,16.385000000002037,16.625,16.739999999997963,17.6449999999968,15.614999999997963,35.93000000000029,31.42500000000291]","10","RDK","217","47065","0.0-0.0-217.0"
"-1","-1","false","a,l","l","200","true","200","1","0","0.5","2","-1","1","600","400","white","gray","3","2","2","16.674583333332823","[16.589999999996508,16.70499999999447,16.625000000007276,16.729999999995925,16.705000000001746,16.775000000001455,16.544999999998254,16.610000000000582,16.69499999999971,16.674999999995634,16.710000000006403,16.729999999995925]","12","RDK","218","47281","0.0-0.0-218.0"
"-1","-1","false","a,l","a","200","true","200","1","180","0.5","2","-1","1","600","400","white","gray","3","2","2","16.727500000000145","[17.525000000001455,15.614999999997963,16.69999999999709,16.67500000000291,16.654999999998836,16.654999999998836,17.55000000000291,16.349999999998545,17.099999999998545,16.450000000004366]","10","RDK","219","47498","0.0-0.0-219.0"
"-1","-1","false","a,l","l","200","true","200","1","0","0.5","2","-1","1","600","400","white","gray","3","2","2","19.014500000000407","[40.59000000000378,16.44000000000233,16.325000000004366,16.674999999995634,16.919999999998254,17.095000000001164,17.034999999996217,16.59500000000844,15.884999999994761,16.584999999999127]","10","RDK","220","47772","0.0-0.0-220.0"
"-1","-1","false","a,l","l","200","true","200","1","0","0.5","2","-1","1","600","400","white","gray","3","2","2","16.776250000000193","[17.24500000000262,16.059999999990396,16.660000000003492,17.000000000007276,16.544999999998254,16.554999999993015,16.575000000004366,16.87999999999738,16.68000000000029,16.6050000000032,16.834999999999127,17.67500000000291]","12","RDK","221","47982","0.0-0.0-221.0"
"-1","-1","false","a,l","l","200","true","200","1","0","0.5","2","-1","1","600","400","white","gray","3","2","2","16.61958333333314","[16.43499999999767,16.450000000004366,17.169999999998254,16.165000000000873,16.819999999992433,16.635000000002037,16.735000000000582,16.510000000002037,16.685000000004948,16.749999999992724,16.55500000000029,16.525000000001455]","12","RDK","222","48200","0.0-0.0-222.0"
"-1","-1","false","a,l","a","200","true","200","1","180","0.5","2","-1","1","600","400","white","gray","3","2","2","16.667916666666617","[16.5199999999968,16.654999999998836,16.630000000004657,16.69999999999709,16.760000000002037,16.72500000000582,16.57999999999447,16.665000000000873,16.839999999996508,16.505000000004657,16.830000000001746,16.604999999995925]","12","RDK","223","48416","0.0-0.0-223.0"
"-1","-1","false","a,l","l","200","true","200","1","0","0.5","2","-1","1","600","400","white","gray","3","2","2","16.67750000000039","[16.910000000003492,16.31999999999971,17.43499999999767,15.87000000000262,16.68499999999767,16.49500000000262,16.93499999999767,16.44000000000233,17.3949999999968,16.090000000003783,16.589999999996508,16.965000000003783]","12","RDK","224","48632","0.0-0.0-224.0"
"-1","-1","false","a,l","l","200","true","200","1","0","0.5","2","-1","1","600","400","white","gray","3","2","2","16.64000000000008","[17.32999999999447,15.570000000006985,16.764999999999418,16.689999999995052,16.68000000000029,16.72500000000582,16.724999999998545,16.929999999993015,16.34000000001106,16.64999999999418,16.635000000002037]","11","RDK","225","48848","0.0-0.0-225.0"
"-1","-1","false","a,l","a","200","true","200","1","180","0.5","2","-1","1","600","400","white","gray","3","2","2","16.2737500000009","[11.97500000000582,16.650000000001455,16.77499999999418,16.6050000000032,16.654999999998836,16.7699999999968,16.610000000000582,16.450000000004366,16.81999999999971,16.885000000002037,16.439999999995052,16.65000000000873]","12","RDK","226","49050","0.0-0.0-226.0"
"-1","-1","false","a,l","a","200","true","200","1","180","0.5","2","-1","1","600","400","white","gray","3","2","2","16.67249999999937","[16.614999999997963,16.584999999999127,16.505000000004657,16.875,16.844999999993888,16.700000000004366,16.56999999999971,16.709999999999127,16.75499999999738,16.55000000000291,16.594999999993888,16.764999999999418]","12","RDK","227","49266","0.0-0.0-227.0"
"-1","-1","false","a,l","a","200","true","200","1","180","0.5","2","-1","1","600","400","white","gray","3","2","2","16.642499999999927","[17.064999999995052,15.959999999999127,16.715000000003783,16.63499999999476,17.55000000000291,15.989999999997963,17.785000000003492,15.440000000002328,16.37000000000262,16.95499999999447,16.62999999999738,16.61500000000524]","12","RDK","228","49482","0.0-0.0-228.0"
"-1","-1","false","a,l","l","200","true","200","1","0","0.5","2","-1","1","600","400","white","gray","3","2","2","16.599999999999756","[15.709999999991851,16.810000000004948,16.614999999997963,16.529999999998836,16.790000000000873,16.639999999999418,16.61500000000524,16.844999999993888,16.669999999998254,16.55000000000291,16.55500000000029,16.87000000000262]","12","RDK","229","49700","0.0-0.0-229.0"
"-1","-1","false","a,l","l","200","true","200","1","0","0.5","2","-1","1","600","400","white","gray","3","2","2","16.649583333333187","[16.470000000001164,16.654999999998836,16.290000000000873,16.999999999992724,16.830000000009022,16.424999999995634,16.69499999999971,16.669999999998254,16.710000000006403,16.70999999999185,16.435000000004948,16.904999999998836]","12","RDK","230","49916","0.0-0.0-230.0"
"-1","-1","false","a,l","l","200","true","200","1","0","0.5","2","-1","1","600","400","white","gray","3","2","2","16.626249999999953","[18.334999999999127,14.49500000000262,16.654999999998836,16.924999999995634,16.540000000000873,16.514999999999418,16.770000000004075,16.69999999999709,16.555000000007567,16.694999999992433,16.655000000006112,16.674999999995634]","12","RDK","231","50133","0.0-0.0-231.0"
"-1","-1","false","a,l","a","200","true","200","1","180","0.5","2","-1","1","600","400","white","gray","3","2","2","16.6579166666664","[16.530000000006112,16.739999999997963,16.595000000001164,16.584999999999127,16.794999999998254,16.544999999998254,16.68000000000029,16.69499999999971,16.760000000002037,17.81500000000233,15.650000000001455,16.504999999990105]","12","RDK","232","50350","0.0-0.0-232.0"
"-1","-1","false","a,l","a","200","true","200","1","180","0.5","2","-1","1","600","400","white","gray","3","2","2","16.566249999999854","[15.12000000000262,16.724999999998545,17.610000000000582,15.840000000003783,16.679999999993015,16.595000000001164,16.69000000000233,16.82499999999709,16.6050000000032,17.0199999999968,16.280000000006112,16.804999999993015]","12","RDK","233","50567","0.0-0.0-233.0"
"-1","-1","false","a,l","l","200","true","200","1","0","0.5","2","-1","1","600","400","white","gray","3","2","2","16.6579166666664","[17.364999999997963,15.760000000002037,17.119999999995343,16.17000000000553,16.705000000001746,16.654999999998836,16.660000000003492,16.734999999993306,16.6449999999968,16.685000000004948,16.645000000004075,16.749999999992724]","12","RDK","234","50783","0.0-0.0-234.0"
"-1","-1","false","a,l","a","200","true","200","1","180","0.5","2","-1","1","600","400","white","gray","3","2","2","16.625833333333503","[16.044999999998254,16.905000000006112,16.534999999996217,16.62999999999738,16.645000000004075,16.67500000000291,16.854999999995925,16.660000000003492,16.720000000001164,16.674999999995634,16.54500000000553,16.619999999995343]","12","RDK","235","51000","0.0-0.0-235.0"
"-1","-1","false","a,l","a","200","true","200","1","180","0.5","2","-1","1","600","400","white","gray","3","2","2","16.66625000000022","[16.455000000001746,16.94999999999709,16.849999999998545,16.025000000001455,17.154999999998836,16.549999999995634,16.625000000007276,16.724999999998545,17.8949999999968,15.400000000001455,17.029999999998836,16.335000000006403]","12","RDK","236","51217","0.0-0.0-236.0"
"-1","-1","false","a,l","a","200","true","200","1","180","0.5","2","-1","1","600","400","white","gray","3","2","2","16.559166666665988","[15.364999999990687,16.560000000004948,16.650000000001455,16.599999999998545,16.665000000000873,16.739999999997963,16.735000000000582,16.55500000000029,16.635000000002037,16.709999999999127,16.845000000001164,16.64999999999418]","12","RDK","237","51433","0.0-0.0-237.0"
"-1","-1","false","a,l","l","200","true","200","1","0","0.5","2","-1","1","600","400","white","gray","3","2","2","16.659999999999854","[16.41500000000815,16.62000000000262,16.714999999996508,16.594999999993888,16.785000000003492,16.760000000002037,16.599999999998545,16.609999999993306,16.575000000004366,16.880000000004657,16.839999999996508,16.52499999999418]","12","RDK","238","51650","0.0-0.0-238.0"
"-1","-1","false","a,l","a","200","true","200","1","180","0.5","2","-1","1","600","400","white","gray","3","2","2","16.64916666666674","[16.520000000004075,16.535000000003492,16.69499999999971,16.589999999996508,16.74500000000262,16.914999999993597,16.485000000007858,16.549999999995634,16.875,16.625,16.6449999999968,16.610000000000582]","12","RDK","239","51867","0.0-0.0-239.0"
"-1","-1","false","a,l","l","200","true","200","1","0","0.5","2","-1","1","600","400","white","gray","3","2","2","16.625833333333503","[16.93000000000029,15.669999999998254,16.714999999996508,16.61500000000524,16.909999999996217,17.380000000004657,15.734999999993306,17.54000000000815,15.834999999991851,16.56500000000233,16.760000000002037,16.8550000000032]","12","RDK","240","52084","0.0-0.0-240.0"
"-1","-1","false","a,l","l","200","true","200","1","0","0.5","2","-1","1","600","400","white","gray","3","2","2","16.649999999999636","[17.00499999999738,16.04000000000815,16.669999999998254,16.609999999993306,16.87000000000262,16.604999999995925,16.715000000003783,16.525000000001455,17.044999999998254,16.455000000001746,16.604999999995925,16.654999999998836]","12","RDK","241","52300","0.0-0.0-241.0"
"-1","-1","false","a,l","a","200","true","200","1","180","0.5","2","-1","1","600","400","white","gray","3","2","2","16.628749999999854","[16.31500000000233,16.744999999995343,16.555000000007567,16.664999999993597,16.775000000001455,16.67500000000291,16.799999999995634,16.505000000004657,16.784999999996217,16.535000000003492,16.599999999998545,16.589999999996508]","12","RDK","242","52517","0.0-0.0-242.0"
"-1","-1","false","a,l","l","200","true","200","1","0","0.5","2","-1","1","600","400","white","gray","3","2","2","16.627083333333456","[16.18000000000029,16.705000000001746,16.72500000000582,16.5,16.77499999999418,17.50499999999738,15.800000000010186,16.764999999999418,16.75999999999476,16.529999999998836,16.669999999998254,16.610000000000582]","12","RDK","243","52733","0.0-0.0-243.0"
"-1","-1","false","a,l","l","200","true","200","1","0","0.5","2","-1","1","600","400","white","gray","3","2","2","16.657500000000557","[17.230000000010477,15.909999999996217,17.64999999999418,15.835000000006403,16.6449999999968,16.69499999999971,16.724999999998545,16.564999999995052,17.59000000001106,15.85499999998865,17.735000000007858,15.455000000001746]","12","RDK","244","52951","0.0-0.0-244.0"
"-1","-1","false","a,l","a","200","true","200","1","180","0.5","2","-1","1","600","400","white","gray","3","2","2","16.655909090908775","[17.544999999998254,15.599999999998545,16.780000000006112,17.345000000001164,16.05500000000029,16.75499999999738,16.5,16.624999999992724,16.740000000012515,16.769999999989523,16.5]","11","RDK","245","53167","0.0-0.0-245.0"
"-1","-1","false","a,l","l","200","true","200","1","0","0.5","2","-1","1","600","400","white","gray","3","2","2","16.253333333333405","[12.45499999999447,15.905000000006112,17.164999999993597,16.905000000006112,15.860000000000582,16.735000000000582,16.674999999995634,16.700000000004366,16.6449999999968,16.67000000000553,16.539999999993597,16.785000000003492]","12","RDK","246","53368","0.0-0.0-246.0"
"-1","-1","false","a,l","l","200","true","200","1","0","0.5","2","-1","1","600","400","white","gray","3","2","2","16.68590909090827","[16.639999999992142,17.04500000000553,16.235000000000582,16.909999999996217,16.505000000004657,16.639999999999418,16.82499999999709,16.700000000004366,16.595000000001164,16.654999999998836,16.794999999990978]","11","RDK","247","53583","0.0-0.0-247.0"
"-1","-1","false","a,l","l","200","true","200","1","0","0.5","2","-1","1","600","400","white","gray","3","2","2","16.25458333333275","[11.489999999990687,16.60000000000582,16.80500000000029,16.7699999999968,16.525000000001455,16.67500000000291,16.75,18.034999999996217,15.500000000007276,16.514999999999418,16.584999999999127,16.804999999993015]","12","RDK","248","53786","0.0-0.0-248.0"
"-1","-1","false","a,l","a","200","true","200","1","180","0.5","2","-1","1","600","400","white","gray","3","2","2","16.642916666666377","[16.12000000000262,16.794999999998254,16.735000000000582,16.739999999997963,16.44999999999709,16.81500000000233,16.62999999999738,16.825000000004366,17.625,15.784999999996217,16.710000000006403,16.484999999993306]","12","RDK","249","54001","0.0-0.0-249.0"
"-1","-1","false","a,l","l","200","true","200","1","0","0.5","2","-1","1","600","400","white","gray","3","2","2","16.66125000000041","[16.47500000000582,17.679999999993015,15.820000000006985,16.50499999999738,17.014999999999418,16.589999999996508,16.47500000000582,16.75499999999738,16.584999999999127,16.790000000000873,16.735000000000582,16.510000000002037]","12","RDK","250","54218","0.0-0.0-250.0"
