"rt","key_press","correct","choices","correct_choice","trial_duration","response_ends_trial","number_of_dots","number_of_sets","coherent_direction","coherence","dot_radius","dot_life","move_distance","aperture_width","aperture_height","dot_color","background_color","RDK_type","aperture_type","reinsert_type","frame_rate","frame_rate_array","number_of_frames","trial_type","trial_index","time_elapsed","internal_node_id"
"-1","-1","false","a,l","l","200","true","200","1","0","0.5","2","-1","1","600","400","white","gray","3","2","2","18.403749999999995","[31.30000000000001,15.92999999999995,16.940000000000055,15.934999999999945,17.004999999999995,16.655000000000086,17.014999999999986,16.449999999999932]","8","RDK","0","213","0.0-0.0-0.0"
"-1","-1","false","a,l","a","200","true","200","1","180","0.5","2","-1","1","600","400","white","gray","3","2","2","16.099166666666672","[9.759999999999991,16.340000000000032,17,15.544999999999959,17.035000000000082,17.449999999999932,15.909999999999968,17.915000000000077,16.855000000000018,15.954999999999927,16.38499999999999,17.040000000000077]","12","RDK","1","416","0.0-0.0-1.0"
"-1","-1","false","a,l","a","200","true","200","1","180","0.5","2","-1","1","600","400","white","gray","3","2","2","18.15636363636364","[16.295000000000073,16.67999999999995,16.460000000000036,15.819999999999936,17.680000000000064,16.324999999999932,37.57000000000005,12.809999999999945,16.860000000000014,15.714999999999918,17.50500000000011]","11","RDK","2","628","0.0-0.0-2.0"
"-1","-1","false","a,l","l","200","true","200","1","0","0.5","2","-1","1","600","400","white","gray","3","2","2","18.221818181818186","[16.13000000000011,17.595000000000027,16.08499999999981,17.49000000000001,16.460000000000036,16.62000000000012,34.50499999999988,15.039999999999964,17.210000000000036,16.210000000000036,17.095000000000027]","11","RDK","3","847","0.0-0.0-3.0"
"-1","-1","false","a,l","a","200","true","200","1","180","0.5","2","-1","1","600","400","white","gray","3","2","2","18.222272727272742","[16.220000000000027,17.735000000000127,16.189999999999827,16.910000000000082,16.674999999999955,16.2650000000001,34.92000000000007,15.5,16.7199999999998,16.64500000000021,16.664999999999964]","11","RDK","4","1063","0.0-0.0-4.0"
"-1","-1","false","a,l","l","200","true","200","1","0","0.5","2","-1","1","600","400","white","gray","3","2","2","16.767499999999984","[17.319999999999936,18.2349999999999,15.960000000000036,16.079999999999927,16.64500000000021,16.649999999999864,16.694999999999936,15.775000000000091,17.589999999999918,16.585000000000036,16.985000000000127,16.689999999999827]","12","RDK","5","1280","0.0-0.0-5.0"
"-1","-1","false","a,l","l","200","true","200","1","0","0.5","2","-1","1","600","400","white","gray","3","2","2","16.693750000000005","[16.964999999999918,16.934999999999945,15.735000000000127,17.414999999999964,20.84999999999991,19.86500000000001,9.225000000000136,16.74000000000001,16.579999999999927,16.664999999999964,16.325000000000045,17.02500000000009]","12","RDK","6","1494","0.0-0.0-6.0"
"-1","-1","false","a,l","l","200","true","200","1","0","0.5","2","-1","1","600","400","white","gray","3","2","2","18.079999999999988","[15.950000000000045,17.309999999999945,16.63499999999999,16.65000000000009,15.7349999999999,17.14500000000021,37.3599999999999,13.159999999999854,16.66000000000031,16.659999999999854,15.614999999999782]","11","RDK","7","1713","0.0-0.0-7.0"
"-1","-1","false","a,l","a","200","true","200","1","180","0.5","2","-1","1","600","400","white","gray","3","2","2","18.260000000000012","[17.195000000000164,16.605000000000018,16.99499999999989,16.63000000000011,16.7199999999998,16.644999999999982,34.26999999999998,15.735000000000127,16.840000000000146,16.634999999999764,16.590000000000146]","11","RDK","8","1929","0.0-0.0-8.0"
"-1","-1","false","a,l","l","200","true","200","1","0","0.5","2","-1","1","600","400","white","gray","3","2","2","18.170909090909102","[16.264999999999873,16.72499999999991,15.809999999999945,17.370000000000346,16.730000000000018,16.029999999999745,35.690000000000055,13.985000000000127,17.509999999999764,15.860000000000127,17.9050000000002]","11","RDK","9","2147","0.0-0.0-9.0"
"-1","-1","false","a,l","a","200","true","200","1","180","0.5","2","-1","1","600","400","white","gray","3","2","2","18.171363636363655","[16.43000000000029,15.99499999999989,16.5949999999998,17.590000000000146,16.570000000000164,16.234999999999673,36.01000000000022,14.440000000000055,16.644999999999982,16.71499999999969,16.66000000000031]","11","RDK","10","2361","0.0-0.0-10.0"
"-1","-1","false","a,l","l","200","true","200","1","0","0.5","2","-1","1","600","400","white","gray","3","2","2","14.974999999999993","[2.25,16.41000000000031,12.9399999999996,16.670000000000073,16.965000000000146,16.414999999999964,16.585000000000036,15.695000000000164,27.56999999999971,7.800000000000182,15.424999999999727]","11","RDK","11","2578","0.0-0.0-11.0"
"-1","-1","false","a,l","l","200","true","200","1","0","0.5","2","-1","1","600","400","white","gray","3","2","2","14.77666666666668","[2.600000000000364,9.459999999999582,15.870000000000346,15.7199999999998,17.50500000000011,15.949999999999818,17.519999999999982,16.68000000000029,16.579999999999927,15.730000000000018,17.73999999999978,15.965000000000146]","12","RDK","12","2781","0.0-0.0-12.0"
"-1","-1","false","a,l","a","200","true","200","1","180","0.5","2","-1","1","600","400","white","gray","3","2","2","16.660416666666645","[16.399999999999636,16.475000000000364,16.794999999999618,16.795000000000073,16.565000000000055,16.700000000000273,16.109999999999673,17.230000000000018,28.25500000000011,5.235000000000127,16.549999999999727,16.815000000000055]","12","RDK","13","2996","0.0-0.0-13.0"
"-1","-1","false","a,l","l","200","true","200","1","0","0.5","2","-1","1","600","400","white","gray","3","2","2","16.659166666666692","[15.519999999999982,17.4350000000004,16.980000000000018,16.47499999999991,16.585000000000036,16.769999999999982,31.34999999999991,1.949999999999818,16.110000000000127,17.11499999999978,16.960000000000036,16.66000000000031]","12","RDK","14","3213","0.0-0.0-14.0"
"-1","-1","false","a,l","a","200","true","200","1","180","0.5","2","-1","1","600","400","white","gray","3","2","2","18.122727272727264","[16.46499999999969,16.745000000000346,16.684999999999945,15.710000000000036,17.429999999999836,16.875,34.00500000000011,16.049999999999727,16.700000000000273,16.634999999999764,16.050000000000182]","11","RDK","15","3429","0.0-0.0-15.0"
"-1","-1","false","a,l","a","200","true","200","1","180","0.5","2","-1","1","600","400","white","gray","3","2","2","18.154090909090925","[16.24499999999989,16.53500000000031,16.634999999999764,16.585000000000036,16.664999999999964,16.684999999999945,35.17000000000007,15.019999999999982,16.51000000000022,16.789999999999964,16.855000000000018]","11","RDK","16","3647","0.0-0.0-16.0"
"-1","-1","false","a,l","l","200","true","200","1","0","0.5","2","-1","1","600","400","white","gray","3","2","2","16.660000000000043","[16.46000000000049,18.514999999999418,22.38500000000022,9.220000000000255,16.67999999999938,16.600000000000364,16.715000000000146,16.664999999999964,25.88000000000011,7.085000000000036,17.045000000000073,16.670000000000073]","12","RDK","17","3862","0.0-0.0-17.0"
"-1","-1","false","a,l","l","200","true","200","1","0","0.5","2","-1","1","600","400","white","gray","3","2","2","18.106363636363643","[16.595000000000255,16.74499999999989,16.599999999999454,15.735000000000582,36.79500000000007,14.234999999999673,16.654999999999745,16.625,16.580000000000837,16.729999999999563,15.875]","11","RDK","18","4076","0.0-0.0-18.0"
"-1","-1","false","a,l","l","200","true","200","1","0","0.5","2","-1","1","600","400","white","gray","3","2","2","18.19590909090907","[16.69499999999971,16.639999999999418,16.69000000000051,16.604999999999563,16.6200000000008,15.829999999999927,35.779999999999745,15.279999999999745,15.829999999999927,17.43000000000029,16.75500000000011]","11","RDK","19","4297","0.0-0.0-19.0"
"-1","-1","false","a,l","a","200","true","200","1","180","0.5","2","-1","1","600","400","white","gray","3","2","2","18.194545454545484","[16.449999999999818,16.095000000000255,17.204999999999927,16.265000000000327,16.984999999999673,16.710000000000036,34.07499999999982,15.1200000000008,17.36999999999989,17.034999999999854,16.829999999999927]","11","RDK","20","4514","0.0-0.0-20.0"
"-1","-1","false","a,l","a","200","true","200","1","180","0.5","2","-1","1","600","400","white","gray","3","2","2","18.130000000000027","[15.840000000000146,17.215000000000146,16.774999999999636,15.779999999999745,17.345000000000255,16.949999999999818,35.07499999999982,15.040000000000873,16.654999999999745,16.050000000000182,16.704999999999927]","11","RDK","21","4730","0.0-0.0-21.0"
"-1","-1","false","a,l","l","200","true","200","1","0","0.5","2","-1","1","600","400","white","gray","3","2","2","18.170454545454547","[15.574999999999818,18.350000000000364,15.679999999999382,16.590000000000146,16.675000000000182,16.68000000000029,33.835000000000036,16.669999999999163,15.345000000000255,17.600000000000364,16.875]","11","RDK","22","4947","0.0-0.0-22.0"
"-1","-1","false","a,l","a","200","true","200","1","180","0.5","2","-1","1","600","400","white","gray","3","2","2","16.65208333333332","[16.36999999999989,15.980000000000473,22.784999999999854,18.770000000000437,9.18499999999949,16.414999999999964,16.925000000000182,16.649999999999636,16.675000000000182,16.26000000000022,17.24499999999989,16.5649999999996]","12","RDK","23","5163","0.0-0.0-23.0"
"-1","-1","false","a,l","l","200","true","200","1","0","0.5","2","-1","1","600","400","white","gray","3","2","2","18.10181818181817","[16.609999999999673,16.675000000000182,16.6899999999996,15.735000000000582,17.299999999999272,36.335000000000036,13.900000000000546,16.69499999999971,16.720000000000255,16.625,15.835000000000036]","11","RDK","24","5381","0.0-0.0-24.0"
"-1","-1","false","a,l","l","200","true","200","1","0","0.5","2","-1","1","600","400","white","gray","3","2","2","18.190000000000012","[16.835000000000036,16.585000000000036,16.595000000000255,16.68499999999949,16.69500000000062,16.664999999999964,35.719999999999345,14.275000000000546,16.699999999999818,16.68000000000029,16.654999999999745]","11","RDK","25","5596","0.0-0.0-25.0"
"-1","-1","false","a,l","l","200","true","200","1","0","0.5","2","-1","1","600","400","white","gray","3","2","2","18.220909090909117","[16.600000000000364,16.085000000000036,17.420000000000073,16.5,16.69499999999971,16.68000000000029,34.00999999999931,16.07000000000062,16.18499999999949,17.19000000000051,16.99499999999989]","11","RDK","26","5814","0.0-0.0-26.0"
"-1","-1","false","a,l","l","200","true","200","1","0","0.5","2","-1","1","600","400","white","gray","3","2","2","15.305416666666664","[2.619999999999891,16.199999999999818,15.835000000000036,15.640000000000327,17.170000000000073,17.164999999999964,17.474999999999454,17.230000000000473,15.469999999999345,16.3100000000004,16.81999999999971,15.730000000000473]","12","RDK","27","6031","0.0-0.0-27.0"
"-1","-1","false","a,l","a","200","true","200","1","180","0.5","2","-1","1","600","400","white","gray","3","2","2","16.641250000000053","[16.395000000000437,16.640000000000327,16.6899999999996,16.61499999999978,16.110000000000582,17.229999999999563,15.885000000000218,26.80999999999949,7.020000000000437,15.984999999999673,17.645000000000437,16.670000000000073]","12","RDK","28","6246","0.0-0.0-28.0"
"-1","-1","false","a,l","a","200","true","200","1","180","0.5","2","-1","1","600","400","white","gray","3","2","2","18.193636363636372","[16.529999999999745,15.970000000000255,17.454999999999927,35.49499999999989,14.590000000000146,16.61499999999978,16.670000000000073,16.659999999999854,16.545000000000073,17.175000000000182,16.425000000000182]","11","RDK","29","6464","0.0-0.0-29.0"
"-1","-1","false","a,l","l","200","true","200","1","0","0.5","2","-1","1","600","400","white","gray","3","2","2","18.09272727272723","[16.579999999999927,16.649999999999636,16.715000000000146,15.715000000000146,17.229999999999563,17.13000000000011,37.039999999999964,12.925000000000182,16.579999999999927,16.730000000000473,15.724999999999454]","11","RDK","30","6681","0.0-0.0-30.0"
"-1","-1","false","a,l","l","200","true","200","1","0","0.5","2","-1","1","600","400","white","gray","3","2","2","18.211363636363618","[16.94000000000051,16.56999999999971,15.904999999999745,17.50500000000011,16.664999999999964,16.670000000000073,34.56999999999971,15.570000000000618,16.715000000000146,16.545000000000073,16.669999999999163]","11","RDK","31","6898","0.0-0.0-31.0"
"-1","-1","false","a,l","l","200","true","200","1","0","0.5","2","-1","1","600","400","white","gray","3","2","2","18.373999999999977","[17.25500000000011,15.75,17.390000000000327,16.56999999999971,16.765000000000327,16.674999999999272,35.80000000000018,14.145000000000437,16.11499999999978,17.274999999999636]","10","RDK","32","7110","0.0-0.0-32.0"
"-1","-1","false","a,l","l","200","true","200","1","0","0.5","2","-1","1","600","400","white","gray","3","2","2","16.573750000000018","[15.275000000000546,16.69499999999971,16.659999999999854,16.595000000000255,16.724999999999454,16.225000000000364,16.274999999999636,18.525000000000546,15.554999999999382,16.860000000000582,16.824999999999818,16.670000000000073]","12","RDK","33","7315","0.0-0.0-33.0"
"-1","-1","false","a,l","l","200","true","200","1","0","0.5","2","-1","1","600","400","white","gray","3","2","2","16.661249999999956","[17.125,17.045000000000073,16.625,19.894999999999527,21.045000000000073,9.06500000000051,15.719999999999345,16.735000000000582,17.42999999999938,15.88000000000011,16.625,16.74499999999989]","12","RDK","34","7527","0.0-0.0-34.0"
"-1","-1","false","a,l","l","200","true","200","1","0","0.5","2","-1","1","600","400","white","gray","3","2","2","18.25454545454539","[16.8149999999996,16.335000000000036,16.890000000000327,16.545000000000073,16.539999999999964,16.674999999999272,34.335000000000036,15.850000000000364,17.085000000000036,16.579999999999927,17.149999999999636]","11","RDK","35","7747","0.0-0.0-35.0"
"-1","-1","false","a,l","l","200","true","200","1","0","0.5","2","-1","1","600","400","white","gray","3","2","2","16.7341666666667","[17.609999999999673,16.735000000000582,16.584999999999127,15.854999999999563,16.910000000001673,17.19499999999971,16.44999999999891,21.110000000000582,19.985000000000582,9.1299999999992,15.600000000000364,17.645000000000437]","12","RDK","36","7962","0.0-0.0-36.0"
"-1","-1","false","a,l","a","200","true","200","1","180","0.5","2","-1","1","600","400","white","gray","3","2","2","18.201818181818286","[16.25500000000102,16.340000000000146,17.454999999999927,16.670000000000073,16.549999999999272,16.829999999999927,34.17500000000109,15.834999999999127,16.729999999999563,16.784999999999854,16.595000000001164]","11","RDK","37","8181","0.0-0.0-37.0"
"-1","-1","false","a,l","l","200","true","200","1","0","0.5","2","-1","1","600","400","white","gray","3","2","2","18.186818181818044","[16.664999999999054,16.649999999999636,15.774999999999636,17.31500000000051,16.034999999999854,16.88000000000102,36.55999999999949,13.9950000000008,16.704999999999927,15.924999999999272,17.549999999999272]","11","RDK","38","8395","0.0-0.0-38.0"
"-1","-1","false","a,l","a","200","true","200","1","180","0.5","2","-1","1","600","400","white","gray","3","2","2","16.686249999999898","[15.729999999999563,18.704999999999927,16.420000000000073,15.68499999999949,16.825000000000728,16.264999999999418,17.31999999999971,16.395000000000437,16.720000000001164,16.644999999998618,16.375,17.149999999999636]","12","RDK","39","8615","0.0-0.0-39.0"
"-1","-1","false","a,l","l","200","true","200","1","0","0.5","2","-1","1","600","400","white","gray","3","2","2","18.07000000000004","[15.7450000000008,17.154999999998836,16.6200000000008,16.68499999999949,35.77000000000044,14.7549999999992,15.31000000000131,17.30999999999949,17.264999999999418,16.530000000000655,15.625]","11","RDK","40","8831","0.0-0.0-40.0"
"-1","-1","false","a,l","l","200","true","200","1","0","0.5","2","-1","1","600","400","white","gray","3","2","2","15.263749999999922","[2.8249999999989086,15.005000000001019,14.524999999999636,17.68000000000029,16.69999999999891,16.19499999999971,17.275000000001455,16.399999999999636,16.38500000000022,16.829999999999927,15.944999999999709,17.399999999999636]","12","RDK","41","9045","0.0-0.0-41.0"
"-1","-1","false","a,l","a","200","true","200","1","180","0.5","2","-1","1","600","400","white","gray","3","2","2","16.664583333333365","[16.56999999999971,16.640000000001237,15.875,17.419999999998254,16.665000000000873,16.084999999999127,32.2450000000008,1.7399999999997817,17.220000000001164,16.154999999998836,16.659999999999854,16.700000000000728]","12","RDK","42","9266","0.0-0.0-42.0"
"-1","-1","false","a,l","l","200","true","200","1","0","0.5","2","-1","1","600","400","white","gray","3","2","2","18.1695454545456","[16.105000000001382,17.179999999998472,16.7400000000016,16.43999999999869,16.600000000000364,16.69499999999971,34.375,15.530000000000655,16.93000000000029,16.709999999999127,16.56000000000131]","11","RDK","43","9482","0.0-0.0-43.0"
"-1","-1","false","a,l","l","200","true","200","1","0","0.5","2","-1","1","600","400","white","gray","3","2","2","18.17545454545457","[16.700000000000728,16.57499999999891,15.655000000000655,17.264999999999418,16.985000000000582,16.664999999999054,45.55500000000029,4.5,16.61499999999978,15.840000000000146,17.575000000000728]","11","RDK","44","9698","0.0-0.0-44.0"
"-1","-1","false","a,l","a","200","true","200","1","180","0.5","2","-1","1","600","400","white","gray","3","2","2","16.627916666666653","[17.63500000000022,15.269999999998618,16.595000000001164,16.024999999999636,17.340000000000146,15.93499999999949,17.38500000000022,16.664999999999054,16.67500000000109,15.93499999999949,17.38500000000022,16.69000000000051]","12","RDK","45","9915","0.0-0.0-45.0"
"-1","-1","false","a,l","l","200","true","200","1","0","0.5","2","-1","1","600","400","white","gray","3","2","2","16.692083333333358","[16.014999999999418,16.700000000000728,17.280000000000655,16.61499999999978,15.895000000000437,18.224999999998545,16.040000000000873,15.494999999998981,17.6150000000016,17.57499999999891,16.290000000000873,16.55999999999949]","12","RDK","46","10132","0.0-0.0-46.0"
"-1","-1","false","a,l","l","200","true","200","1","0","0.5","2","-1","1","600","400","white","gray","3","2","2","18.162727272727185","[16.549999999999272,16.68499999999949,15.640000000001237,17.05500000000029,17.354999999999563,16.674999999999272,36.42000000000007,13.545000000000073,16.43000000000029,15.994999999998981,17.44000000000051]","11","RDK","47","10350","0.0-0.0-47.0"
"-1","-1","false","a,l","a","200","true","200","1","180","0.5","2","-1","1","600","400","white","gray","3","2","2","18.186818181818207","[16.68000000000029,15.920000000000073,16.43000000000029,16.549999999999272,17.56500000000051,16.094999999999345,35.29000000000087,15.670000000000073,16.48999999999978,16.770000000000437,16.594999999999345]","11","RDK","48","10566","0.0-0.0-48.0"
"-1","-1","false","a,l","l","200","true","200","1","0","0.5","2","-1","1","600","400","white","gray","3","2","2","18.146363636363688","[15.670000000000073,16.30000000000109,17.594999999999345,16.655000000000655,16.68499999999949,16.63500000000022,33.69000000000051,16.019999999998618,17.149999999999636,16.270000000000437,16.94000000000051]","11","RDK","49","10780","0.0-0.0-49.0"
"-1","-1","false","a,l","l","200","true","200","1","0","0.5","2","-1","1","600","400","white","gray","3","2","2","18.34400000000005","[17.600000000000364,16.670000000000073,15.614999999999782,17.375,16.465000000000146,17.220000000001164,34.54500000000007,15.569999999999709,16.709999999999127,15.670000000000073]","10","RDK","50","10997","0.0-0.0-50.0"
"-1","-1","false","a,l","l","200","true","200","1","0","0.5","2","-1","1","600","400","white","gray","3","2","2","16.307083333333292","[12.415000000000873,15.854999999999563,17.609999999998763,16.445000000001528,16.670000000000073,16.654999999998836,15.760000000000218,17.420000000000073,16.889999999999418,16.600000000000364,16.69499999999971,16.670000000000073]","12","RDK","51","11205","0.0-0.0-51.0"
"-1","-1","false","a,l","l","200","true","200","1","0","0.5","2","-1","1","600","400","white","gray","3","2","2","16.672083333333376","[16.655000000000655,15.899999999999636,17.43000000000029,16.645000000000437,15.7549999999992,17.090000000000146,17.18000000000029,16.68000000000029,16.68000000000029,16.11499999999978,17.334999999999127,16.600000000000364]","12","RDK","52","11413","0.0-0.0-52.0"
"-1","-1","false","a,l","l","200","true","200","1","0","0.5","2","-1","1","600","400","white","gray","3","2","2","16.603750000000066","[16.6200000000008,16.654999999998836,16.69000000000051,16.659999999999854,16.165000000000873,17.159999999999854,31.340000000000146,1.805000000000291,17.414999999999054,16.31500000000051,16.549999999999272,15.8700000000008]","12","RDK","53","11631","0.0-0.0-53.0"
"-1","-1","false","a,l","l","200","true","200","1","0","0.5","2","-1","1","600","400","white","gray","3","2","2","16.68333333333324","[17.090000000000146,16.609999999998763,16.655000000000655,16.704999999999927,16.729999999999563,16.610000000000582,15.774999999999636,17.235000000000582,16.840000000000146,16.68999999999869,16.595000000001164,16.664999999999054]","12","RDK","54","11848","0.0-0.0-54.0"
"-1","-1","false","a,l","a","200","true","200","1","180","0.5","2","-1","1","600","400","white","gray","3","2","2","16.683749999999993","[16.645000000000437,15.904999999998836,17.405000000000655,16.74499999999898,16.695000000001528,16.399999999999636,31.895000000000437,1.7249999999985448,17.200000000000728,15.649999999999636,17.409999999999854,16.530000000000655]","12","RDK","55","12067","0.0-0.0-55.0"
"-1","-1","false","a,l","a","200","true","200","1","180","0.5","2","-1","1","600","400","white","gray","3","2","2","18.09681818181823","[16.56500000000051,16.69000000000051,16.674999999999272,16.649999999999636,16.095000000001164,17.31999999999971,33.905000000000655,16.214999999998327,16.595000000001164,16.68000000000029,15.674999999999272]","11","RDK","56","12283","0.0-0.0-56.0"
"-1","-1","false","a,l","a","200","true","200","1","180","0.5","2","-1","1","600","400","white","gray","3","2","2","16.652499999999993","[16.674999999999272,16.475000000000364,16.645000000000437,16.69000000000051,16.674999999999272,16.655000000000655,15.704999999999927,17.344999999999345,17.0049999999992,16.63500000000022,16.69000000000051,16.63500000000022]","12","RDK","57","12498","0.0-0.0-57.0"
"-1","-1","false","a,l","a","200","true","200","1","180","0.5","2","-1","1","600","400","white","gray","3","2","2","15.495416666666642","[2.375,16.61499999999978,16.76000000000022,16.899999999999636,16.4950000000008,16.649999999999636,17.229999999999563,16.13000000000102,16.959999999999127,15.819999999999709,17.4950000000008,16.514999999999418]","12","RDK","58","12716","0.0-0.0-58.0"
"-1","-1","false","a,l","a","200","true","200","1","180","0.5","2","-1","1","600","400","white","gray","3","2","2","16.51166666666677","[15.944999999999709,16.56000000000131,16.61499999999978,16.799999999999272,16.145000000000437,17.469999999999345,16.3650000000016,16.579999999999927,16.649999999999636,16.664999999999054,16.600000000000364,15.7450000000008]","12","RDK","59","12933","0.0-0.0-59.0"
"-1","-1","false","a,l","l","200","true","200","1","0","0.5","2","-1","1","600","400","white","gray","3","2","2","16.712727272727285","[17.11499999999978,16.6200000000008,16.284999999999854,17.039999999999054,16.68500000000131,16.679999999998472,31.480000000001382,1.6350000000002183,17.674999999999272,16.159999999999854,16.465000000000146]","11","RDK","60","13148","0.0-0.0-60.0"
"-1","-1","false","a,l","l","200","true","200","1","0","0.5","2","-1","1","600","400","white","gray","3","2","2","17.760909090909163","[11.774999999999636,16.710000000000946,15.774999999999636,17.360000000000582,16.920000000000073,16.69499999999971,33.54500000000007,16.5049999999992,16.604999999999563,16.17500000000109,17.30500000000029]","11","RDK","61","13354","0.0-0.0-61.0"
"-1","-1","false","a,l","a","200","true","200","1","180","0.5","2","-1","1","600","400","white","gray","3","2","2","16.636250000000018","[16.30500000000029,18.664999999999054,22.105000000001382,8.974999999998545,16.895000000000437,16.05999999999949,17.43000000000029,15.985000000000582,16.670000000000073,17.18499999999949,16.659999999999854,16.700000000000728]","12","RDK","62","13566","0.0-0.0-62.0"
"-1","-1","false","a,l","a","200","true","200","1","180","0.5","2","-1","1","600","400","white","gray","3","2","2","18.333500000000093","[16.079999999999927,17.284999999999854,16.6200000000008,16.670000000000073,35.54999999999927,14.469999999999345,15.610000000000582,17.325000000000728,17.06999999999971,16.655000000000655]","10","RDK","63","13779","0.0-0.0-63.0"
"-1","-1","false","a,l","l","200","true","200","1","0","0.5","2","-1","1","600","400","white","gray","3","2","2","18.01500000000008","[15.275000000001455,16.719999999999345,16.664999999999054,15.760000000000218,17.31500000000051,16.954999999999927,33.960000000000946,16.094999999999345,16.784999999999854,16.534999999999854,16.100000000000364]","11","RDK","64","13984","0.0-0.0-64.0"
"-1","-1","false","a,l","a","200","true","200","1","180","0.5","2","-1","1","600","400","white","gray","3","2","2","16.64874999999999","[16.590000000000146,16.779999999998836,17.150000000001455,15.93999999999869,16.75,16.68000000000029,15.930000000000291,17.399999999999636,16.55999999999949,16.650000000001455,16.68499999999949,16.670000000000073]","12","RDK","65","14197","0.0-0.0-65.0"
"-1","-1","false","a,l","l","200","true","200","1","0","0.5","2","-1","1","600","400","white","gray","3","2","2","16.692727272727346","[16.63500000000022,16.104999999999563,17.285000000001673,16.659999999999854,16.039999999999054,16.50500000000102,32.534999999999854,1.5749999999989086,16.235000000000582,16.829999999999927,17.215000000000146]","11","RDK","66","14421","0.0-0.0-66.0"
"-1","-1","false","a,l","l","200","true","200","1","0","0.5","2","-1","1","600","400","white","gray","3","2","2","15.820000000000013","[6.454999999999927,16.604999999999563,21.085000000000946,19.69499999999971,8.43499999999949,17.215000000000146,17.104999999999563,16.645000000000437,16.06500000000051,17.209999999999127,16.604999999999563,16.720000000001164]","12","RDK","67","14624","0.0-0.0-67.0"
"-1","-1","false","a,l","l","200","true","200","1","0","0.5","2","-1","1","600","400","white","gray","3","2","2","18.266818181818135","[17.409999999999854,16.854999999999563,16.63500000000022,16.600000000000364,16.69999999999891,36.409999999999854,12.805000000000291,17.43500000000131,16.82499999999891,15.845000000001164,17.414999999999054]","11","RDK","68","14833","0.0-0.0-68.0"
"-1","-1","false","a,l","a","200","true","200","1","180","0.5","2","-1","1","600","400","white","gray","3","2","2","18.210454545454592","[16.69000000000051,16.69000000000051,16.06499999999869,17.30000000000109,16.61499999999978,16.674999999999272,34.38000000000102,15.68499999999949,16.73999999999978,16.344999999999345,17.13000000000102]","11","RDK","69","15050","0.0-0.0-69.0"
"-1","-1","false","a,l","a","200","true","200","1","180","0.5","2","-1","1","600","400","white","gray","3","2","2","18.33799999999992","[15.69000000000051,17.56499999999869,16.67500000000109,16.644999999998618,15.655000000000655,17.31500000000051,34.35999999999876,16.045000000000073,16.835000000000946,16.594999999999345]","10","RDK","70","15266","0.0-0.0-70.0"
"-1","-1","false","a,l","a","200","true","200","1","180","0.5","2","-1","1","600","400","white","gray","3","2","2","16.22958333333342","[10.300000000001091,17.264999999999418,16.98999999999978,16.61499999999978,16.63000000000102,16.69499999999971,16.69000000000051,18.639999999999418,14.305000000000291,17.039999999999054,16.80999999999949,16.775000000001455]","12","RDK","71","15470","0.0-0.0-71.0"
"-1","-1","false","a,l","a","200","true","200","1","180","0.5","2","-1","1","600","400","white","gray","3","2","2","15.273749999999987","[2.3800000000010186,18.05500000000029,12.389999999999418,16.93000000000029,17.524999999999636,16.579999999999927,16.659999999999854,16.585000000000946,26.1349999999984,7.220000000001164,16.645000000000437,16.179999999998472]","12","RDK","72","15680","0.0-0.0-72.0"
"-1","-1","false","a,l","a","200","true","200","1","180","0.5","2","-1","1","600","400","white","gray","3","2","2","18.174545454545463","[16.545000000000073,16.6349999999984,16.670000000000073,16.655000000000655,35.93000000000029,13.805000000000291,17.024999999999636,16.645000000000437,16.659999999999854,16.014999999999418,17.335000000000946]","11","RDK","73","15899","0.0-0.0-73.0"
"-1","-1","false","a,l","l","200","true","200","1","0","0.5","2","-1","1","600","400","white","gray","3","2","2","18.196363636363788","[15.7400000000016,17.349999999998545,16.92500000000109,16.645000000000437,16.6349999999984,16.67000000000189,34.5,14.93999999999869,17.235000000000582,17.020000000000437,16.5]","11","RDK","74","16117","0.0-0.0-74.0"
"-1","-1","false","a,l","a","200","true","200","1","180","0.5","2","-1","1","600","400","white","gray","3","2","2","16.51750000000023","[16.735000000000582,15.415000000000873,16.669999999998254,16.360000000000582,17.085000000002765,16.68999999999869,16.56000000000131,16.61999999999898,16.639999999999418,16.68999999999869,16.68500000000131,16.06000000000131]","12","RDK","75","16335","0.0-0.0-75.0"
"-1","-1","false","a,l","l","200","true","200","1","0","0.5","2","-1","1","600","400","white","gray","3","2","2","16.67208333333353","[16.610000000000582,16.700000000000728,16.625,16.669999999998254,16.645000000000437,16.68500000000131,31.665000000000873,1.6499999999978172,17.174999999999272,16.37000000000262,16.514999999999418,16.75500000000102]","12","RDK","76","16551","0.0-0.0-76.0"
"-1","-1","false","a,l","l","200","true","200","1","0","0.5","2","-1","1","600","400","white","gray","3","2","2","16.63833333333332","[15.380000000001019,17.6349999999984,16.825000000000728,16.584999999999127,16.960000000002765,16.32499999999709,16.56500000000233,16.69499999999971,15.790000000000873,17.375,16.86999999999898,16.654999999998836]","12","RDK","77","16765","0.0-0.0-77.0"
"-1","-1","false","a,l","a","200","true","200","1","180","0.5","2","-1","1","600","400","white","gray","3","2","2","16.64291666666668","[16.665000000000873,16.63000000000102,17.729999999999563,15.539999999997235,16.9800000000032,16.549999999999272,16.81999999999971,16.614999999997963,16.390000000003056,16.974999999998545,16.56000000000131,16.2599999999984]","12","RDK","78","16984","0.0-0.0-78.0"
"-1","-1","false","a,l","a","200","true","200","1","180","0.5","2","-1","1","600","400","white","gray","3","2","2","16.659583333333405","[16.375,16.75,16.544999999998254,16.770000000000437,16.585000000002765,19.62999999999738,13.530000000002474,16.875,17.07499999999709,16.340000000000146,16.7400000000016,16.700000000000728]","12","RDK","79","17201","0.0-0.0-79.0"
"-1","-1","false","a,l","l","200","true","200","1","0","0.5","2","-1","1","600","400","white","gray","3","2","2","18.181363636363542","[15.520000000000437,17.344999999997526,17.030000000002474,16.639999999999418,16.69499999999971,16.669999999998254,34.595000000001164,14.569999999999709,17.3650000000016,17,16.56499999999869]","11","RDK","80","17417","0.0-0.0-80.0"
"-1","-1","false","a,l","l","200","true","200","1","0","0.5","2","-1","1","600","400","white","gray","3","2","2","16.584583333333285","[16.12999999999738,16.760000000002037,16.739999999997963,15.950000000000728,17.534999999999854,16.56000000000131,16.5,16.68999999999869,16.709999999999127,16.780000000002474,16.529999999998836,16.13000000000102]","12","RDK","81","17635","0.0-0.0-81.0"
"-1","-1","false","a,l","l","200","true","200","1","0","0.5","2","-1","1","600","400","white","gray","3","2","2","16.641666666666424","[16.424999999999272,16.389999999999418,16.729999999999563,16.54500000000189,16.719999999997526,16.69499999999971,31.875,1.7100000000027649,17.024999999997817,16.159999999999854,16.860000000000582,16.56499999999869]","12","RDK","82","17852","0.0-0.0-82.0"
"-1","-1","false","a,l","l","200","true","200","1","0","0.5","2","-1","1","600","400","white","gray","3","2","2","18.20318181818187","[15.614999999997963,17.18000000000029,17.18500000000131,16.659999999999854,15.954999999998108,17.29500000000189,34.10499999999956,15.075000000000728,17.38000000000102,16.93499999999767,16.850000000002183]","11","RDK","83","18068","0.0-0.0-83.0"
"-1","-1","false","a,l","a","200","true","200","1","180","0.5","2","-1","1","600","400","white","gray","3","2","2","16.598749999999807","[16.56999999999971,16.68999999999869,20.57999999999811,20.18000000000029,9.12000000000262,16.849999999998545,16.639999999999418,16.625,16.68500000000131,16.700000000000728,16.69999999999709,15.845000000001164]","12","RDK","84","18285","0.0-0.0-84.0"
"-1","-1","false","a,l","l","200","true","200","1","0","0.5","2","-1","1","600","400","white","gray","3","2","2","18.183636363636403","[16.719999999997526,16.575000000000728,16.645000000000437,16.6349999999984,15.960000000002765,36.54999999999927,14.369999999998981,16.580000000001746,15.919999999998254,17.409999999999854,16.655000000002474]","11","RDK","85","18500","0.0-0.0-85.0"
"-1","-1","false","a,l","l","200","true","200","1","0","0.5","2","-1","1","600","400","white","gray","3","2","2","15.490833333333285","[2.180000000000291,17.159999999999854,16.399999999997817,16.580000000001746,16.924999999999272,16.44499999999971,16.150000000001455,18.959999999999127,14.345000000001164,16.965000000000146,17.07999999999811,16.700000000000728]","12","RDK","86","18718","0.0-0.0-86.0"
"-1","-1","false","a,l","a","200","true","200","1","180","0.5","2","-1","1","600","400","white","gray","3","2","2","18.13500000000005","[16.530000000002474,16.700000000000728,16.714999999996508,15.75,17.285000000003492,16.909999999999854,33.719999999997526,16.44499999999971,16.62000000000262,16.69999999999709,16.110000000000582]","11","RDK","87","18936","0.0-0.0-87.0"
"-1","-1","false","a,l","l","200","true","200","1","0","0.5","2","-1","1","600","400","white","gray","3","2","2","18.196363636363625","[16.705000000001746,15.665000000000873,17.57499999999709,16.56500000000233,16.645000000000437,16.729999999999563,34.18999999999869,16.06999999999971,16.514999999999418,16.875,16.625]","11","RDK","88","19152","0.0-0.0-88.0"
"-1","-1","false","a,l","a","200","true","200","1","180","0.5","2","-1","1","600","400","white","gray","3","2","2","16.66708333333342","[16.515000000003056,18.2599999999984,22.709999999999127,9.100000000002183,16.649999999997817,16.67000000000189,16.645000000000437,16.719999999997526,25.924999999999272,6.970000000001164,17.17000000000189,16.669999999998254]","12","RDK","89","19365","0.0-0.0-89.0"
"-1","-1","false","a,l","l","200","true","200","1","0","0.5","2","-1","1","600","400","white","gray","3","2","2","18.109545454545614","[15.860000000000582,17.474999999998545,16.700000000000728,15.81000000000131,36.98500000000058,13.849999999998545,16.67000000000189,16.659999999999854,16.724999999998545,16.595000000001164,15.875]","11","RDK","90","19585","0.0-0.0-90.0"
"-1","-1","false","a,l","l","200","true","200","1","0","0.5","2","-1","1","600","400","white","gray","3","2","2","18.178181818181738","[16.82999999999811,16.62000000000262,16.68499999999767,16.6050000000032,16.68499999999767,16.715000000000146,33.92000000000189,16.340000000000146,16.5099999999984,16.61999999999898,16.43000000000029]","11","RDK","91","19802","0.0-0.0-91.0"
"-1","-1","false","a,l","l","200","true","200","1","0","0.5","2","-1","1","600","400","white","gray","3","2","2","18.187272727272514","[16.484999999996944,16.025000000001455,17.270000000000437,16.659999999999854,16.669999999998254,16.67000000000189,33.970000000001164,16.224999999998545,16.284999999999854,16.974999999998545,16.825000000000728]","11","RDK","92","20018","0.0-0.0-92.0"
"-1","-1","false","a,l","a","200","true","200","1","180","0.5","2","-1","1","600","400","white","gray","3","2","2","16.56791666666656","[16.43999999999869,16.695000000003347,16.6449999999968,15.820000000003347,17.2599999999984,17.1150000000016,16.5,16.57499999999709,16.68500000000131,16.68500000000131,16.669999999998254,15.724999999998545]","12","RDK","93","20233","0.0-0.0-93.0"
"-1","-1","false","a,l","a","200","true","200","1","180","0.5","2","-1","1","600","400","white","gray","3","2","2","16.671250000000025","[16.735000000000582,16.6150000000016,16.590000000000146,16.700000000000728,15.965000000000146,17.3849999999984,31.275000000001455,2.0900000000001455,15.849999999998545,16.665000000000873,17.485000000000582,16.69999999999709]","12","RDK","94","20450","0.0-0.0-94.0"
"-1","-1","false","a,l","a","200","true","200","1","180","0.5","2","-1","1","600","400","white","gray","3","2","2","16.668333333333067","[16.599999999998545,16.025000000001455,20.474999999998545,20.94499999999971,9.275000000001455,16.614999999997963,16.700000000000728,16.650000000001455,15.639999999999418,17.20499999999811,17.25500000000102,16.6349999999984]","12","RDK","95","20665","0.0-0.0-95.0"
"-1","-1","false","a,l","l","200","true","200","1","0","0.5","2","-1","1","600","400","white","gray","3","2","2","18.10545454545453","[16.61999999999898,16.7400000000016,16.665000000000873,16.625,16.2599999999984,36.205000000001746,14.219999999997526,16.68500000000131,16.645000000000437,16.68999999999869,15.805000000000291]","11","RDK","96","20886","0.0-0.0-96.0"
"-1","-1","false","a,l","a","200","true","200","1","180","0.5","2","-1","1","600","400","white","gray","3","2","2","18.14409090909083","[16.889999999999418,16.674999999999272,16.639999999999418,16.645000000000437,16.674999999999272,16.700000000000728,34.26499999999942,15.93500000000131,16.549999999999272,16.700000000000728,15.909999999999854]","11","RDK","97","21098","0.0-0.0-97.0"
"-1","-1","false","a,l","l","200","true","200","1","0","0.5","2","-1","1","600","400","white","gray","3","2","2","18.191818181818235","[16.56000000000131,15.969999999997526,17.485000000000582,16.6150000000016,16.665000000000873,16.625,33.62999999999738,16.455000000001746,16.114999999997963,17.275000000001455,16.715000000000146]","11","RDK","98","21319","0.0-0.0-98.0"
"-1","-1","false","a,l","a","200","true","200","1","180","0.5","2","-1","1","600","400","white","gray","3","2","2","18.098181818181647","[16.5099999999984,16.7400000000016,16.650000000001455,16.659999999999854,16.215000000000146,17.164999999997235,33.99500000000262,16.084999999999127,16.654999999998836,16.700000000000728,15.704999999998108]","11","RDK","99","21536","0.0-0.0-99.0"
"-1","-1","false","a,l","a","200","true","200","1","180","0.5","2","-1","1","600","400","white","gray","3","2","2","15.291666666666666","[2.5799999999981083,14.3650000000016,16.38000000000102,16.639999999999418,16.985000000000582,16.44999999999709,15.845000000001164,17.54500000000189,16.764999999999418,16.610000000000582,16.75499999999738,16.580000000001746]","12","RDK","100","21752","0.0-0.0-100.0"
"-1","-1","false","a,l","a","200","true","200","1","180","0.5","2","-1","1","600","400","white","gray","3","2","2","16.65625","[16.49499999999898,16.06999999999971,16.960000000002765,17.0099999999984,16.010000000002037,17.20499999999811,16.724999999998545,16.67000000000189,16.669999999998254,16.015000000003056,17.364999999997963,16.68000000000029]","12","RDK","101","21966","0.0-0.0-101.0"
"-1","-1","false","a,l","l","200","true","200","1","0","0.5","2","-1","1","600","400","white","gray","3","2","2","16.604999999999865","[16.57999999999811,16.705000000001746,16.6349999999984,16.659999999999854,16.2400000000016,32.86499999999796,1.9200000000018917,16.239999999997963,16.2400000000016,16.55999999999767,16.88000000000102,15.735000000000582]","12","RDK","102","22186","0.0-0.0-102.0"
"-1","-1","false","a,l","a","200","true","200","1","180","0.5","2","-1","1","600","400","white","gray","3","2","2","18.352499999999782","[16.99499999999898,16.56499999999869,16.640000000003056,16.584999999999127,16.75,16.56499999999869,34.19499999999971,15.780000000002474,16.779999999998836,16.669999999998254]","10","RDK","103","22398","0.0-0.0-103.0"
"-1","-1","false","a,l","l","200","true","200","1","0","0.5","2","-1","1","600","400","white","gray","3","2","2","18.085909090909066","[15.349999999998545,16.659999999999854,15.854999999999563,17.350000000002183,16.794999999998254,16.68000000000029,35.06000000000131,15.110000000000582,16.554999999996653,16.340000000000146,17.19000000000233]","11","RDK","104","22605","0.0-0.0-104.0"
"-1","-1","false","a,l","a","200","true","200","1","180","0.5","2","-1","1","600","400","white","gray","3","2","2","16.641666666666726","[16.514999999999418,16.68500000000131,16.56999999999971,16.604999999999563,16.720000000001164,16.465000000000146,16.889999999999418,16.69499999999971,16.525000000001455,16.6349999999984,16.69499999999971,16.700000000000728]","12","RDK","105","22816","0.0-0.0-105.0"
"-1","-1","false","a,l","l","200","true","200","1","0","0.5","2","-1","1","600","400","white","gray","3","2","2","16.67999999999999","[16.169999999998254,32.02000000000044,2.025000000001455,18.034999999999854,15.25,15.559999999997672,17.655000000002474,15.969999999997526,17.2400000000016,16.94499999999971,16.610000000000582,16.68000000000029]","12","RDK","106","23036","0.0-0.0-106.0"
"-1","-1","false","a,l","l","200","true","200","1","0","0.5","2","-1","1","600","400","white","gray","3","2","2","16.655416666666497","[16.540000000000873,16.69499999999971,15.770000000000437,17.37999999999738,16.470000000001164,20.06499999999869,21.19000000000233,9.145000000000437,16.68499999999767,16.650000000001455,15.899999999997817,17.375]","12","RDK","107","23250","0.0-0.0-107.0"
"-1","-1","false","a,l","l","200","true","200","1","0","0.5","2","-1","1","600","400","white","gray","3","2","2","18.194545454545402","[15.744999999998981,17.69499999999971,16.68500000000131,16.599999999998545,16.69499999999971,16.015000000003056,34.914999999997235,15.799999999999272,15.610000000000582,17.655000000002474,16.724999999998545]","11","RDK","108","23469","0.0-0.0-108.0"
"-1","-1","false","a,l","a","200","true","200","1","180","0.5","2","-1","1","600","400","white","gray","3","2","2","16.664166666666762","[16.12000000000262,17.19999999999709,16.080000000001746,18.43500000000131,16.029999999998836,16.20499999999811,16.595000000001164,15.81000000000131,17.364999999997963,16.924999999999272,16.580000000001746,16.625]","12","RDK","109","23684","0.0-0.0-109.0"
"-1","-1","false","a,l","l","200","true","200","1","0","0.5","2","-1","1","600","400","white","gray","3","2","2","18.17181818181813","[16.614999999997963,16.705000000001746,15.809999999997672,17.25500000000102,17.010000000002037,16.594999999997526,35.625,14.375,16.645000000000437,15.854999999999563,17.400000000001455]","11","RDK","110","23903","0.0-0.0-110.0"
"-1","-1","false","a,l","l","200","true","200","1","0","0.5","2","-1","1","600","400","white","gray","3","2","2","16.67999999999999","[16.55500000000029,16.655000000002474,15.87999999999738,17.43500000000131,16.68000000000029,16.024999999997817,17.410000000003492,17.584999999999127,16.290000000000873,16.209999999999127,16.55500000000029,16.87999999999738]","12","RDK","111","24120","0.0-0.0-111.0"
"-1","-1","false","a,l","l","200","true","200","1","0","0.5","2","-1","1","600","400","white","gray","3","2","2","18.198181818181844","[16.139999999999418,17.104999999999563,16.92000000000189,16.415000000000873,16.610000000000582,16.674999999999272,34.94499999999971,14.809999999997672,17.150000000001455,16.5,16.909999999999854]","11","RDK","112","24337","0.0-0.0-112.0"
"-1","-1","false","a,l","l","200","true","200","1","0","0.5","2","-1","1","600","400","white","gray","3","2","2","16.647083333333285","[16.514999999999418,16.80000000000291,27.57999999999811,5.325000000000728,17.025000000001455,16.714999999996508,16.575000000000728,16.665000000000873,16.720000000001164,16.625,15.81499999999869,17.404999999998836]","12","RDK","113","24550","0.0-0.0-113.0"
"-1","-1","false","a,l","a","200","true","200","1","180","0.5","2","-1","1","600","400","white","gray","3","2","2","15.433333333333394","[2.3950000000004366,16.81499999999869,16.095000000001164,16.604999999999563,16.81499999999869,16.040000000000873,17.209999999999127,16.590000000000146,16.659999999999854,16.67500000000291,16.68000000000029,16.61999999999898]","12","RDK","114","24769","0.0-0.0-114.0"
"-1","-1","false","a,l","l","200","true","200","1","0","0.5","2","-1","1","600","400","white","gray","3","2","2","16.674545454545626","[15.975000000002183,17.450000000000728,16.599999999998545,16.575000000000728,16.700000000000728,16.479999999999563,31.789999999997235,1.7100000000027649,16.70499999999811,17.075000000000728,16.360000000000582]","11","RDK","115","24984","0.0-0.0-115.0"
"-1","-1","false","a,l","a","200","true","200","1","180","0.5","2","-1","1","600","400","white","gray","3","2","2","16.265000000000025","[12.709999999999127,16.69000000000233,16.82999999999811,15.68500000000131,17.275000000001455,17.0199999999968,15.67500000000291,17.43000000000029,16.68999999999869,16.674999999999272,16.68999999999869,15.81000000000131]","12","RDK","116","25192","0.0-0.0-116.0"
"-1","-1","false","a,l","l","200","true","200","1","0","0.5","2","-1","1","600","400","white","gray","3","2","2","16.63041666666656","[16.80500000000029,15.735000000000582,17.62999999999738,16.650000000001455,16.650000000001455,16.7599999999984,31.485000000000582,1.7799999999988358,17.350000000002183,16.125,16.68499999999767,15.909999999999854]","12","RDK","117","25403","0.0-0.0-117.0"
"-1","-1","false","a,l","a","200","true","200","1","180","0.5","2","-1","1","600","400","white","gray","3","2","2","16.6545833333336","[16.29500000000189,17.544999999998254,16.450000000000728,16.139999999999418,16.69499999999971,16.570000000003347,16.794999999998254,16.599999999998545,16.68000000000029,16.13000000000102,17.215000000000146,16.7400000000016]","12","RDK","118","25620","0.0-0.0-118.0"
"-1","-1","false","a,l","l","200","true","200","1","0","0.5","2","-1","1","600","400","white","gray","3","2","2","18.080000000000094","[16.38000000000102,16.659999999999854,16.69499999999971,15.579999999998108,36.85499999999956,14.270000000000437,16.625,16.69499999999971,16.68500000000131,16.665000000000873,15.770000000000437]","11","RDK","119","25838","0.0-0.0-119.0"
"-1","-1","false","a,l","l","200","true","200","1","0","0.5","2","-1","1","600","400","white","gray","3","2","2","18.217727272727313","[16.895000000000437,16.68000000000029,16.625,16.599999999998545,15.715000000000146,17.75,34.01499999999942,16.200000000000728,16.534999999999854,16.700000000000728,16.68000000000029]","11","RDK","120","26054","0.0-0.0-120.0"
"-1","-1","false","a,l","l","200","true","200","1","0","0.5","2","-1","1","600","400","white","gray","3","2","2","16.657083333333503","[16.540000000000873,16.200000000000728,17.279999999998836,16.654999999998836,16.650000000001455,16.61999999999898,15.619999999998981,17.54500000000189,16.709999999999127,16.029999999998836,17.360000000000582,16.67500000000291]","12","RDK","121","26267","0.0-0.0-121.0"
"-1","-1","false","a,l","l","200","true","200","1","0","0.5","2","-1","1","600","400","white","gray","3","2","2","16.645833333333332","[17.389999999999418,16.715000000000146,16.625,16.67000000000189,16.200000000000728,17.18499999999767,31.55500000000029,1.8549999999995634,16.580000000001746,16.645000000000437,16.69999999999709,15.630000000001019]","12","RDK","122","26488","0.0-0.0-122.0"
"-1","-1","false","a,l","l","200","true","200","1","0","0.5","2","-1","1","600","400","white","gray","3","2","2","18.246818181818195","[17.040000000000873,16.61999999999898,16.67000000000189,16.654999999998836,16.669999999998254,16.68500000000131,34,16.25,16.57999999999811,16.575000000000728,16.970000000001164]","11","RDK","123","26704","0.0-0.0-123.0"
"-1","-1","false","a,l","l","200","true","200","1","0","0.5","2","-1","1","600","400","white","gray","3","2","2","16.660000000000156","[16.56500000000233,15.895000000000437,17.32499999999709,16.780000000002474,16.590000000000146,16.68000000000029,16.654999999998836,16.700000000000728,16.709999999999127,15.93500000000131,17.474999999998545,16.610000000000582]","12","RDK","124","26918","0.0-0.0-124.0"
"-1","-1","false","a,l","a","200","true","200","1","180","0.5","2","-1","1","600","400","white","gray","3","2","2","16.57541666666687","[16.585000000002765,16.639999999999418,16.659999999999854,16.659999999999854,32.27499999999782,2.110000000000582,16.100000000002183,16.43000000000029,16.45499999999811,16.705000000001746,16.6449999999968,15.640000000003056]","12","RDK","125","27138","0.0-0.0-125.0"
"-1","-1","false","a,l","a","200","true","200","1","180","0.5","2","-1","1","600","400","white","gray","3","2","2","18.217727272727313","[17.06000000000131,16.610000000000582,16.639999999999418,16.68500000000131,16.645000000000437,16.674999999999272,35.98500000000058,14.154999999998836,16.549999999999272,16.645000000000437,16.74499999999898]","11","RDK","126","27354","0.0-0.0-126.0"
"-1","-1","false","a,l","l","200","true","200","1","0","0.5","2","-1","1","600","400","white","gray","3","2","2","18.348500000000058","[16.590000000000146,15.845000000001164,17.419999999998254,16.775000000001455,16.70499999999811,16.610000000000582,34.39500000000044,14.909999999999854,16.875,17.360000000000582]","10","RDK","127","27570","0.0-0.0-127.0"
"-1","-1","false","a,l","a","200","true","200","1","180","0.5","2","-1","1","600","400","white","gray","3","2","2","16.23874999999983","[10.954999999998108,16.635000000002037,16.649999999997817,16.67000000000189,16.674999999999272,16,17.474999999998545,17.165000000000873,16.69000000000233,16.154999999998836,16.55500000000029,17.239999999997963]","12","RDK","128","27773","0.0-0.0-128.0"
"-1","-1","false","a,l","a","200","true","200","1","180","0.5","2","-1","1","600","400","white","gray","3","2","2","18.17136363636382","[15.875,17.19000000000233,16.610000000000582,16.659999999999854,16.654999999998836,16.665000000000873,34.099999999998545,15.645000000000437,17.150000000001455,16.594999999997526,16.7400000000016]","11","RDK","129","27987","0.0-0.0-129.0"
"-1","-1","false","a,l","l","200","true","200","1","0","0.5","2","-1","1","600","400","white","gray","3","2","2","16.677916666666533","[16.5099999999984,15.885000000002037,17.139999999999418,16.93499999999767,16.905000000002474,16.56999999999971,16.80999999999767,16.530000000002474,16.645000000000437,16.80999999999767,15.795000000001892,17.599999999998545]","12","RDK","130","28204","0.0-0.0-130.0"
"-1","-1","false","a,l","l","200","true","200","1","0","0.5","2","-1","1","600","400","white","gray","3","2","2","16.662500000000062","[15.799999999999272,17.44499999999971,16.715000000000146,16.61999999999898,16.705000000001746,18.590000000000146,15.200000000000728,16.3849999999984,16.450000000000728,16.669999999998254,16.665000000000873,16.705000000001746]","12","RDK","131","28421","0.0-0.0-131.0"
"-1","-1","false","a,l","a","200","true","200","1","180","0.5","2","-1","1","600","400","white","gray","3","2","2","18.173181818181714","[16.0099999999984,16.985000000000582,16.909999999999854,16.63000000000102,16.674999999999272,16.67000000000189,34.93999999999869,14.774999999997817,17.035000000003492,16.669999999998254,16.604999999999563]","11","RDK","132","28635","0.0-0.0-132.0"
"-1","-1","false","a,l","a","200","true","200","1","180","0.5","2","-1","1","600","400","white","gray","3","2","2","18.191363636363597","[16.659999999999854,16.665000000000873,15.779999999998836,17.2599999999984,16.979999999999563,16.68000000000029,33.88000000000102,16.279999999998836,16.585000000002765,15.860000000000582,17.474999999998545]","11","RDK","133","28854","0.0-0.0-133.0"
"-1","-1","false","a,l","l","200","true","200","1","0","0.5","2","-1","1","600","400","white","gray","3","2","2","15.215416666666897","[2.975000000002183,13.930000000000291,15.664999999997235,16.7400000000016,16.75,16.014999999999418,17.575000000000728,16.55500000000029,18.81499999999869,21.965000000000146,8.955000000001746,16.645000000000437]","12","RDK","134","29068","0.0-0.0-134.0"
"-1","-1","false","a,l","l","200","true","200","1","0","0.5","2","-1","1","600","400","white","gray","3","2","2","18.195454545454677","[15.975000000002183,17.31999999999971,16.68999999999869,16.595000000001164,15.799999999999272,17.56000000000131,33.94999999999709,15.805000000000291,17.04500000000189,16.80999999999767,16.600000000002183]","11","RDK","135","29288","0.0-0.0-135.0"
"-1","-1","false","a,l","a","200","true","200","1","180","0.5","2","-1","1","600","400","white","gray","3","2","2","16.622500000000098","[16.4900000000016,16.549999999999272,15.555000000000291,17.385000000002037,16.974999999998545,16.674999999999272,16.604999999999563,16.715000000000146,16.645000000000437,16.69000000000233,15.794999999998254,17.389999999999418]","12","RDK","136","29502","0.0-0.0-136.0"
"-1","-1","false","a,l","a","200","true","200","1","180","0.5","2","-1","1","600","400","white","gray","3","2","2","16.71083333333354","[17.06500000000233,16.735000000000582,16.6449999999968,16.635000000002037,32.044999999998254,1.9400000000023283,16.770000000000437,16.084999999999127,16.74499999999898,16.645000000000437,16.63000000000102,16.590000000000146]","12","RDK","137","29722","0.0-0.0-137.0"
"-1","-1","false","a,l","l","200","true","200","1","0","0.5","2","-1","1","600","400","white","gray","3","2","2","16.636666666666617","[15.704999999998108,17.4900000000016,16.549999999999272,16.68000000000029,16.784999999999854,16.5,16.49499999999898,16.640000000003056,16.239999999997963,17.150000000001455,16.779999999998836,16.625]","12","RDK","138","29936","0.0-0.0-138.0"
"-1","-1","false","a,l","a","200","true","200","1","180","0.5","2","-1","1","600","400","white","gray","3","2","2","16.603636363636642","[16.640000000003056,16.724999999998545,15.610000000000582,17.274999999997817,16.150000000001455,17.650000000001455,31.469999999997526,1.8300000000017462,17.229999999999563,16.275000000001455,15.784999999999854]","11","RDK","139","30153","0.0-0.0-139.0"
"-1","-1","false","a,l","l","200","true","200","1","0","0.5","2","-1","1","600","400","white","gray","3","2","2","16.264166666666522","[12.255000000001019,16.544999999998254,16.38000000000102,16.834999999999127,16.654999999998836,16.585000000002765,15.769999999996799,17.385000000002037,16.75,16.649999999997817,16.640000000003056,16.719999999997526]","12","RDK","140","30362","0.0-0.0-140.0"
"-1","-1","false","a,l","a","200","true","200","1","180","0.5","2","-1","1","600","400","white","gray","3","2","2","16.664166666666762","[16.600000000002183,15.954999999998108,17.405000000002474,16.654999999998836,16.70499999999811,16.600000000002183,16.665000000000873,16.784999999999854,16.549999999999272,16.165000000000873,17.014999999999418,16.86999999999898]","12","RDK","141","30569","0.0-0.0-141.0"
"-1","-1","false","a,l","l","200","true","200","1","0","0.5","2","-1","1","600","400","white","gray","3","2","2","16.589999999999844","[16.595000000001164,16.389999999999418,27.235000000000582,5.32499999999709,17.270000000000437,17.220000000001164,16.590000000000146,16.645000000000437,16.724999999998545,16.6150000000016,16.69499999999971,15.774999999997817]","12","RDK","142","30785","0.0-0.0-142.0"
"-1","-1","false","a,l","l","200","true","200","1","0","0.5","2","-1","1","600","400","white","gray","3","2","2","16.70749999999983","[17,16.599999999998545,16.69499999999971,16.67000000000189,15.614999999997963,17.720000000001164,18.485000000000582,15.389999999999418,16.25,16.739999999997963,16.610000000000582,16.715000000000146]","12","RDK","143","31006","0.0-0.0-143.0"
"-1","-1","false","a,l","l","200","true","200","1","0","0.5","2","-1","1","600","400","white","gray","3","2","2","18.180454545454598","[16.56500000000233,15.915000000000873,17.419999999998254,16.715000000000146,16.639999999999418,16.610000000000582,35.61999999999898,14.460000000002765,16.034999999999854,17.224999999998545,16.779999999998836]","11","RDK","144","31219","0.0-0.0-144.0"
"-1","-1","false","a,l","a","200","true","200","1","180","0.5","2","-1","1","600","400","white","gray","3","2","2","18.103636363636312","[15.524999999997817,17.790000000000873,16.650000000001455,16.625,16.31999999999971,17.154999999998836,33.80500000000029,16.174999999999272,16.834999999999127,16.525000000001455,15.735000000000582]","11","RDK","145","31440","0.0-0.0-145.0"
"-1","-1","false","a,l","a","200","true","200","1","180","0.5","2","-1","1","600","400","white","gray","3","2","2","18.192272727272872","[17.00500000000102,16.5099999999984,16.56499999999869,16.63000000000102,16.674999999999272,16.720000000001164,35.330000000001746,14.844999999997526,16.655000000002474,16.514999999999418,16.665000000000873]","11","RDK","146","31654","0.0-0.0-146.0"
"-1","-1","false","a,l","a","200","true","200","1","180","0.5","2","-1","1","600","400","white","gray","3","2","2","16.695416666666762","[16.584999999999127,15.8650000000016,17.469999999997526,16.735000000000582,16.645000000000437,16.600000000002183,15.869999999998981,18.665000000000873,15.974999999998545,15.665000000000873,17.659999999999854,16.610000000000582]","12","RDK","147","31873","0.0-0.0-147.0"
"-1","-1","false","a,l","l","200","true","200","1","0","0.5","2","-1","1","600","400","white","gray","3","2","2","15.375","[2.2049999999981083,17.389999999999418,15.440000000002328,17.07999999999811,16.19000000000233,17.00499999999738,16.850000000002183,16.099999999998545,17.220000000001164,16.669999999998254,16.68000000000029,15.670000000001892]","12","RDK","148","32089","0.0-0.0-148.0"
"-1","-1","false","a,l","a","200","true","200","1","180","0.5","2","-1","1","600","400","white","gray","3","2","2","16.697499999999916","[17.039999999997235,16.68000000000029,16.604999999999563,16.640000000003056,15.840000000000146,33.08499999999913,1.9749999999985448,15.979999999999563,16.715000000000146,16.479999999999563,16.69000000000233,16.639999999999418]","12","RDK","149","32304","0.0-0.0-149.0"
"-1","-1","false","a,l","l","200","true","200","1","0","0.5","2","-1","1","600","400","white","gray","3","2","2","18.178636363636375","[16.639999999999418,15.784999999999854,17.364999999997963,16.875,16.69000000000233,16.635000000002037,34.404999999998836,15.150000000001455,16.44499999999971,17.39999999999418,16.575000000004366]","11","RDK","150","32519","0.0-0.0-150.0"
"-1","-1","false","a,l","a","200","true","200","1","180","0.5","2","-1","1","600","400","white","gray","3","2","2","18.183636363636733","[16.610000000000582,16.655000000006112,16.6449999999968,16.659999999996217,16.06500000000233,17.205000000001746,35.375,14.809999999997672,16.67500000000291,16.674999999995634,16.645000000004075]","11","RDK","151","32740","0.0-0.0-151.0"
"-1","-1","false","a,l","l","200","true","200","1","0","0.5","2","-1","1","600","400","white","gray","3","2","2","18.213181818181923","[17.05000000000291,16.459999999999127,16.040000000000873,17.239999999997963,16.68499999999767,16.645000000004075,33.83499999999913,16.354999999995925,16.700000000004366,16.540000000000873,16.794999999998254]","11","RDK","152","32956","0.0-0.0-152.0"
"-1","-1","false","a,l","a","200","true","200","1","180","0.5","2","-1","1","600","400","white","gray","3","2","2","16.692083333333358","[16.544999999998254,15.69999999999709,17.404999999998836,16.960000000006403,16.664999999993597,16.4800000000032,16.849999999998545,18.654999999998836,15.010000000002037,15.694999999999709,17.31500000000233,17.025000000001455]","12","RDK","153","33173","0.0-0.0-153.0"
"-1","-1","false","a,l","l","200","true","200","1","0","0.5","2","-1","1","600","400","white","gray","3","2","2","16.649090909090855","[16.410000000003492,15.974999999998545,28.474999999998545,5.4100000000034925,16.19999999999709,17.389999999999418,16.6050000000032,15.75,17.599999999998545,16.514999999999418,16.80999999999767]","11","RDK","154","33385","0.0-0.0-154.0"
"-1","-1","false","a,l","l","200","true","200","1","0","0.5","2","-1","1","600","400","white","gray","3","2","2","18.044999999999575","[14.555000000000291,17.19499999999971,16.714999999996508,16.6050000000032,15.635000000002037,17.69499999999971,35.76499999999942,13.915000000000873,16.43499999999767,17.2699999999968,16.709999999999127]","11","RDK","155","33587","0.0-0.0-155.0"
"-1","-1","false","a,l","l","200","true","200","1","0","0.5","2","-1","1","600","400","white","gray","3","2","2","18.161818181818738","[16.6050000000032,16.220000000001164,16.279999999998836,17.19499999999971,16.93499999999767,15.694999999999709,36.50500000000466,14.485000000000582,16.659999999996217,15.794999999998254,17.405000000006112]","11","RDK","156","33803","0.0-0.0-156.0"
"-1","-1","false","a,l","l","200","true","200","1","0","0.5","2","-1","1","600","400","white","gray","3","2","2","18.185909090908932","[16.584999999999127,16.584999999999127,16.020000000004075,17.339999999996508,16.68000000000029,15.959999999999127,34.76000000000204,16.135000000002037,16.584999999999127,16.729999999995925,16.665000000000873]","11","RDK","157","34024","0.0-0.0-157.0"
"-1","-1","false","a,l","l","200","true","200","1","0","0.5","2","-1","1","600","400","white","gray","3","2","2","16.646666666666835","[16.19000000000233,17.389999999999418,16.505000000004657,16.464999999996508,16.69000000000233,16.714999999996508,16.650000000001455,16.50499999999738,16.155000000006112,17.139999999999418,16.689999999995052,16.665000000000873]","12","RDK","158","34237","0.0-0.0-158.0"
"-1","-1","false","a,l","a","200","true","200","1","180","0.5","2","-1","1","600","400","white","gray","3","2","2","16.645454545454413","[17.289999999993597,30.410000000003492,2.4199999999982538,16.889999999999418,16.735000000000582,16.94499999999971,16.665000000000873,16.665000000000873,15.815000000002328,17.534999999996217,15.730000000003201]","11","RDK","159","34452","0.0-0.0-159.0"
"-1","-1","false","a,l","l","200","true","200","1","0","0.5","2","-1","1","600","400","white","gray","3","2","2","16.597499999999854","[15.834999999999127,16.635000000002037,15.634999999994761,17.770000000004075,16.564999999995052,15.815000000002328,17.135000000002037,17.654999999998836,16.290000000000873,16.654999999998836,16.57499999999709,16.6050000000032]","12","RDK","160","34655","0.0-0.0-160.0"
"-1","-1","false","a,l","a","200","true","200","1","180","0.5","2","-1","1","600","400","white","gray","3","2","2","18.18272727272746","[16.630000000004657,16.029999999998836,17.37999999999738,16.610000000000582,16.69999999999709,16.62000000000262,34.18000000000029,15.885000000002037,16.169999999998254,17.125,16.68000000000029]","11","RDK","161","34870","0.0-0.0-161.0"
"-1","-1","false","a,l","a","200","true","200","1","180","0.5","2","-1","1","600","400","white","gray","3","2","2","15.379583333333358","[2.2599999999947613,17.205000000001746,15.680000000000291,15.75499999999738,17.625,16.755000000004657,17.089999999996508,17.54500000000553,15.809999999997672,16.1449999999968,16.965000000003783,15.720000000001164]","12","RDK","162","35091","0.0-0.0-162.0"
"-1","-1","false","a,l","a","200","true","200","1","180","0.5","2","-1","1","600","400","white","gray","3","2","2","16.670833333333576","[16.92000000000553,16.549999999995634,16.735000000000582,16.69999999999709,16.585000000006403,16.875,15.994999999995343,16.31500000000233,17.415000000000873,16.619999999995343,16.645000000004075,16.69499999999971]","12","RDK","163","35305","0.0-0.0-163.0"
"-1","-1","false","a,l","l","200","true","200","1","0","0.5","2","-1","1","600","400","white","gray","3","2","2","16.670000000000073","[16.735000000000582,15.875,17.360000000000582,16.69499999999971,16.639999999999418,16.635000000002037,16.660000000003492,16.784999999996217,16.610000000000582,16.095000000001164,16.854999999995925,17.095000000001164]","12","RDK","164","35520","0.0-0.0-164.0"
"-1","-1","false","a,l","l","200","true","200","1","0","0.5","2","-1","1","600","400","white","gray","3","2","2","16.586666666666133","[16.64999999999418,16.62000000000262,16.625,15.739999999997963,17.25,17.080000000001746,16.654999999998836,16.610000000000582,16.69000000000233,16.669999999998254,16.68000000000029,15.769999999996799]","12","RDK","165","35736","0.0-0.0-165.0"
"-1","-1","false","a,l","l","200","true","200","1","0","0.5","2","-1","1","600","400","white","gray","3","2","2","16.69624999999966","[16.95499999999447,16.700000000004366,16.665000000000873,16.625,16.62999999999738,16.69000000000233,15.915000000000873,17.359999999993306,16.895000000004075,16.56500000000233,16.654999999998836,16.69999999999709]","12","RDK","166","35955","0.0-0.0-166.0"
"-1","-1","false","a,l","a","200","true","200","1","180","0.5","2","-1","1","600","400","white","gray","3","2","2","18.190454545454653","[16.4800000000032,15.959999999999127,17.409999999996217,16.67500000000291,16.74500000000262,16.63499999999476,34.16500000000087,15.294999999998254,16.700000000004366,17.409999999996217,16.62000000000262]","11","RDK","167","36174","0.0-0.0-167.0"
"-1","-1","false","a,l","l","200","true","200","1","0","0.5","2","-1","1","600","400","white","gray","3","2","2","16.5608333333336","[16.55500000000029,16.595000000001164,16.714999999996508,16.74500000000262,16.150000000001455,17.125,16.610000000000582,16.595000000001164,16.659999999996217,16.68499999999767,16.660000000003492,15.635000000002037]","12","RDK","168","36386","0.0-0.0-168.0"
"-1","-1","false","a,l","l","200","true","200","1","0","0.5","2","-1","1","600","400","white","gray","3","2","2","16.716363636363397","[17.12000000000262,16.56999999999971,16.68499999999767,16.650000000001455,16.674999999995634,16.655000000006112,31.19499999999971,1.7849999999962165,17.764999999999418,16.080000000001746,16.69999999999709]","11","RDK","169","36605","0.0-0.0-169.0"
"-1","-1","false","a,l","a","200","true","200","1","180","0.5","2","-1","1","600","400","white","gray","3","2","2","17.82227272727257","[12.434999999997672,33.98999999999796,16.06500000000233,16.669999999998254,16.575000000004366,16.674999999995634,16.780000000006112,16.56999999999971,26.360000000000582,6.844999999993888,17.080000000001746]","11","RDK","170","36808","0.0-0.0-170.0"
"-1","-1","false","a,l","l","200","true","200","1","0","0.5","2","-1","1","600","400","white","gray","3","2","2","18.156363636363743","[16.43499999999767,16.37999999999738,16.875,16.61500000000524,16.68499999999767,35.275000000001455,15.260000000002037,16.2699999999968,16.654999999998836,16.69000000000233,16.580000000001746]","11","RDK","171","37024","0.0-0.0-171.0"
"-1","-1","false","a,l","l","200","true","200","1","0","0.5","2","-1","1","600","400","white","gray","3","2","2","16.731249999999516","[17.139999999999418,17.099999999998545,15.854999999995925,17.380000000004657,16.845000000001164,16.62999999999738,16.44499999999971,15.75,17.345000000001164,17.00499999999738,16.650000000001455,16.62999999999738]","12","RDK","172","37238","0.0-0.0-172.0"
"-1","-1","false","a,l","a","200","true","200","1","180","0.5","2","-1","1","600","400","white","gray","3","2","2","16.599166666666253","[16.6449999999968,16.6449999999968,15.875,17.29500000000553,16.939999999995052,16.62000000000262,31.279999999998836,1.819999999999709,16.885000000002037,16.669999999998254,15.885000000002037,16.62999999999738]","12","RDK","173","37453","0.0-0.0-173.0"
"-1","-1","false","a,l","a","200","true","200","1","180","0.5","2","-1","1","600","400","white","gray","3","2","2","18.19499999999971","[16.594999999993888,16.68000000000029,16.640000000006694,15.664999999993597,17.639999999999418,16.095000000001164,34.529999999998836,16.285000000003492,16.529999999998836,16.755000000004657,16.729999999995925]","11","RDK","174","37675","0.0-0.0-174.0"
"-1","-1","false","a,l","a","200","true","200","1","180","0.5","2","-1","1","600","400","white","gray","3","2","2","16.652916666666595","[15.955000000001746,17.244999999995343,16.660000000003492,16.595000000001164,16.689999999995052,16.650000000001455,16.67000000000553,15.674999999995634,17.31500000000233,17.089999999996508,16.665000000000873,16.625]","12","RDK","175","37888","0.0-0.0-175.0"
"-1","-1","false","a,l","a","200","true","200","1","180","0.5","2","-1","1","600","400","white","gray","3","2","2","15.270000000000106","[1.9349999999976717,17.410000000003492,15.214999999996508,17.37000000000262,16.854999999995925,16.69499999999971,16.650000000001455,16.55000000000291,16.75499999999738,16.810000000004948,15.724999999998545]","11","RDK","176","38105","0.0-0.0-176.0"
"-1","-1","false","a,l","a","200","true","200","1","180","0.5","2","-1","1","600","400","white","gray","3","2","2","16.38791666666657","[13.455000000001746,16.56999999999971,15.884999999994761,17.380000000004657,16.6449999999968,16.81999999999971,16.095000000001164,17.334999999999127,16.560000000004948,16.639999999999418,16.75499999999738,16.514999999999418]","12","RDK","177","38309","0.0-0.0-177.0"
"-1","-1","false","a,l","l","200","true","200","1","0","0.5","2","-1","1","600","400","white","gray","3","2","2","16.64409090909083","[16.220000000001164,16.345000000001164,17.064999999995052,16.74000000000524,16.859999999993306,16.460000000006403,16.62999999999738,16.709999999999127,15.584999999999127,17.540000000000873,16.93000000000029]","11","RDK","178","38523","0.0-0.0-178.0"
"-1","-1","false","a,l","l","200","true","200","1","0","0.5","2","-1","1","600","400","white","gray","3","2","2","16.21333333333314","[11.464999999996508,16.6050000000032,16.709999999999127,16.639999999999418,15.654999999998836,17.375,16.965000000003783,16.775000000001455,16.57499999999709,16.68000000000029,16.654999999998836,16.459999999999127]","12","RDK","179","38731","0.0-0.0-179.0"
"-1","-1","false","a,l","l","200","true","200","1","0","0.5","2","-1","1","600","400","white","gray","3","2","2","16.74416666666669","[17.5,16.87000000000262,16.57499999999709,15.815000000002328,17.510000000002037,16.69999999999709,31.12999999999738,1.7550000000046566,17.44999999999709,16.639999999999418,16.415000000000873,16.56999999999971]","12","RDK","180","38938","0.0-0.0-180.0"
"-1","-1","false","a,l","a","200","true","200","1","180","0.5","2","-1","1","600","400","white","gray","3","2","2","16.67624999999983","[16.68000000000029,16.665000000000873,19.860000000000582,20.844999999993888,9.340000000003783,16.604999999995925,16.685000000004948,16.13499999999476,17.19499999999971,16.705000000001746,16.19499999999971,17.205000000001746]","12","RDK","181","39155","0.0-0.0-181.0"
"-1","-1","false","a,l","l","200","true","200","1","0","0.5","2","-1","1","600","400","white","gray","3","2","2","18.19227272727254","[16.55000000000291,16.735000000000582,16.69499999999971,16.62999999999738,15.714999999996508,36.4600000000064,14.634999999994761,16.705000000001746,16.540000000000873,16.720000000001164,16.729999999995925]","11","RDK","182","39375","0.0-0.0-182.0"
"-1","-1","false","a,l","a","200","true","200","1","180","0.5","2","-1","1","600","400","white","gray","3","2","2","18.265909090908693","[17.599999999998545,16.544999999998254,16.610000000000582,16.56500000000233,16.69499999999971,16.639999999999418,34.470000000001164,15.689999999995052,16.68000000000029,16.67500000000291,16.75499999999738]","11","RDK","183","39592","0.0-0.0-183.0"
"-1","-1","false","a,l","l","200","true","200","1","0","0.5","2","-1","1","600","400","white","gray","3","2","2","18.185909090908932","[16.539999999993597,16.700000000004366,15.985000000000582,17.294999999998254,16.74500000000262,16.619999999995343,33.87000000000262,16.18499999999767,16.74500000000262,16.19499999999971,17.165000000000873]","11","RDK","184","39808","0.0-0.0-184.0"
"-1","-1","false","a,l","l","200","true","200","1","0","0.5","2","-1","1","600","400","white","gray","3","2","2","18.18409090909104","[16.510000000002037,16.650000000001455,16.68000000000029,16.709999999999127,15.720000000001164,17.25499999999738,34.56500000000233,15.889999999999418,16.69999999999709,16.599999999998545,16.74500000000262]","11","RDK","185","40025","0.0-0.0-185.0"
"-1","-1","false","a,l","l","200","true","200","1","0","0.5","2","-1","1","600","400","white","gray","3","2","2","16.657083333332896","[17.114999999997963,17.0199999999968,16.654999999998836,16.595000000001164,16.709999999999127,16.655000000006112,16.714999999996508,25.760000000002037,7.400000000001455,16.924999999995634,16.55500000000029,15.779999999998836]","12","RDK","186","40238","0.0-0.0-186.0"
"-1","-1","false","a,l","l","200","true","200","1","0","0.5","2","-1","1","600","400","white","gray","3","2","2","18.373500000000057","[17.625,16.575000000004366,16.064999999995052,36.700000000004366,14.019999999996799,16.62999999999738,15.75,17.610000000000582,16.639999999999418,16.12000000000262]","10","RDK","187","40454","0.0-0.0-187.0"
"-1","-1","false","a,l","l","200","true","200","1","0","0.5","2","-1","1","600","400","white","gray","3","2","2","18.073181818181844","[15.180000000000291,16.69000000000233,16.62999999999738,16.354999999995925,16.9800000000032,16.67500000000291,34.224999999998545,16.010000000002037,16.464999999996508,16.764999999999418,16.830000000001746]","11","RDK","188","40659","0.0-0.0-188.0"
"-1","-1","false","a,l","l","200","true","200","1","0","0.5","2","-1","1","600","400","white","gray","3","2","2","18.17409090909099","[15.630000000004657,17.224999999998545,17.089999999996508,16.55500000000029,16.150000000001455,17.220000000001164,33.81500000000233,15.489999999997963,17.125,17.025000000001455,16.589999999996508]","11","RDK","189","40875","0.0-0.0-189.0"
"-1","-1","false","a,l","l","200","true","200","1","0","0.5","2","-1","1","600","400","white","gray","3","2","2","16.611666666666377","[16.67500000000291,16.584999999999127,16.81999999999971,15.769999999996799,17.75,16.510000000002037,15.409999999996217,17.700000000004366,16.650000000001455,16.735000000000582,15.769999999996799,16.964999999996508]","12","RDK","190","41093","0.0-0.0-190.0"
"-1","-1","false","a,l","a","200","true","200","1","180","0.5","2","-1","1","600","400","white","gray","3","2","2","16.607083333333623","[16.110000000000582,17.505000000004657,15.864999999997963,17.419999999998254,16.660000000003492,16.57499999999709,31.30500000000029,2.0449999999982538,16.785000000003492,16.650000000001455,16.639999999999418,15.724999999998545]","12","RDK","191","41307","0.0-0.0-191.0"
"-1","-1","false","a,l","a","200","true","200","1","180","0.5","2","-1","1","600","400","white","gray","3","2","2","16.67181818181813","[15.569999999999709,17.284999999996217,20.375,20.79500000000553,9.299999999995634,16.669999999998254,15.685000000004948,17.589999999996508,15.654999999998836,17.515000000006694,16.94999999999709]","11","RDK","192","41521","0.0-0.0-192.0"
"-1","-1","false","a,l","l","200","true","200","1","0","0.5","2","-1","1","600","400","white","gray","3","2","2","15.388333333333625","[2.1999999999970896,16.69499999999971,15.85000000000582,16.56999999999971,16.095000000001164,17.414999999993597,16.215000000003783,16.044999999998254,17.544999999998254,16.655000000006112,16.70499999999447,16.67000000000553]","12","RDK","193","41725","0.0-0.0-193.0"
"-1","-1","false","a,l","l","200","true","200","1","0","0.5","2","-1","1","600","400","white","gray","3","2","2","16.74708333333365","[17.410000000003492,16.724999999998545,16.584999999999127,16.639999999999418,16.660000000003492,16.68499999999767,31.55000000000291,1.7399999999979627,17.389999999999418,16.125,16.705000000001746,16.75]","12","RDK","194","41943","0.0-0.0-194.0"
"-1","-1","false","a,l","a","200","true","200","1","180","0.5","2","-1","1","600","400","white","gray","3","2","2","18.257272727272888","[17.160000000003492,16.779999999998836,16.165000000000873,17.12000000000262,16.68499999999767,15.979999999995925,34.830000000001746,15.955000000001746,15.57499999999709,17.595000000001164,16.985000000000582]","11","RDK","195","42159","0.0-0.0-195.0"
"-1","-1","false","a,l","a","200","true","200","1","180","0.5","2","-1","1","600","400","white","gray","3","2","2","18.186818181818207","[16.645000000004075,16.669999999998254,16.639999999999418,16.6449999999968,15.770000000004075,17.400000000001455,34.474999999998545,15.94999999999709,16.485000000000582,16.75,16.625]","11","RDK","196","42376","0.0-0.0-196.0"
"-1","-1","false","a,l","a","200","true","200","1","180","0.5","2","-1","1","600","400","white","gray","3","2","2","16.675000000000484","[16.505000000004657,17.229999999995925,16.575000000004366,16.659999999996217,16.660000000003492,16.709999999999127,16.635000000002037,25.939999999995052,7.510000000002037,16.654999999998836,16.575000000004366,16.44499999999971]","12","RDK","197","42590","0.0-0.0-197.0"
"-1","-1","false","a,l","a","200","true","200","1","180","0.5","2","-1","1","600","400","white","gray","3","2","2","18.20090909090901","[16.60000000000582,15.64999999999418,17.30500000000029,35.69499999999971,14.74500000000262,16.660000000003492,16.77499999999418,16.62000000000262,15.860000000000582,17.224999999998545,17.07499999999709]","11","RDK","198","42809","0.0-0.0-198.0"
"-1","-1","false","a,l","a","200","true","200","1","180","0.5","2","-1","1","600","400","white","gray","3","2","2","18.140909090908693","[16.159999999996217,16.639999999999418,16.660000000003492,16.674999999995634,15.80000000000291,17.334999999999127,36.25500000000466,13.984999999993306,16.68000000000029,16.640000000006694,16.719999999993888]","11","RDK","199","43026","0.0-0.0-199.0"
"-1","-1","false","a,l","l","200","true","200","1","0","0.5","2","-1","1","600","400","white","gray","3","2","2","18.420000000000435","[17.380000000004657,16.854999999995925,16.584999999999127,15.75,17.595000000001164,16.650000000001455,33.8949999999968,16.3550000000032,16.589999999996508,16.54500000000553]","10","RDK","200","43238","0.0-0.0-200.0"
"-1","-1","false","a,l","a","200","true","200","1","180","0.5","2","-1","1","600","400","white","gray","3","2","2","18.03999999999955","[15.114999999997963,16.650000000001455,16.659999999996217,16.11500000000524,17.18000000000029,15.864999999997963,34.78499999999622,15.389999999999418,17.415000000000873,15.67500000000291,17.589999999996508]","11","RDK","201","43446","0.0-0.0-201.0"
"-1","-1","false","a,l","l","200","true","200","1","0","0.5","2","-1","1","600","400","white","gray","3","2","2","16.647499999999734","[16.534999999996217,18.19499999999971,22.450000000004366,9.25499999999738,16.635000000002037,15.775000000001455,17.284999999996217,17.035000000003492,25.839999999996508,7.435000000004948,16.674999999995634,16.654999999998836]","12","RDK","202","43660","0.0-0.0-202.0"
"-1","-1","false","a,l","a","200","true","200","1","180","0.5","2","-1","1","600","400","white","gray","3","2","2","18.179545454545984","[15.700000000004366,17.489999999997963,16.82499999999709,16.625,35.56999999999971,14.585000000006403,16.625,15.854999999995925,17.395000000004075,16.69499999999971,16.610000000000582]","11","RDK","203","43874","0.0-0.0-203.0"
"-1","-1","false","a,l","a","200","true","200","1","180","0.5","2","-1","1","600","400","white","gray","3","2","2","18.174545454545296","[16.669999999998254,16.67000000000553,16.63499999999476,16.090000000003783,17.409999999996217,16.580000000001746,33.81999999999971,16.2300000000032,16.659999999996217,16.889999999999418,16.264999999999418]","11","RDK","204","44092","0.0-0.0-204.0"
"-1","-1","false","a,l","l","200","true","200","1","0","0.5","2","-1","1","600","400","white","gray","3","2","2","18.19727272727257","[16.650000000001455,16.55500000000029,16.62999999999738,16.639999999999418,16.700000000004366,15.665000000000873,34.86999999999534,16.275000000001455,16.635000000002037,16.739999999997963,16.80999999999767]","11","RDK","205","44310","0.0-0.0-205.0"
"-1","-1","false","a,l","l","200","true","200","1","0","0.5","2","-1","1","600","400","white","gray","3","2","2","16.638333333333623","[15.355000000003201,17.584999999999127,16.864999999997963,16.724999999998545,16.465000000003783,16.665000000000873,16.619999999995343,16.645000000004075,15.869999999995343,17.395000000004075,16.764999999999418,16.705000000001746]","12","RDK","206","44523","0.0-0.0-206.0"
"-1","-1","false","a,l","a","200","true","200","1","180","0.5","2","-1","1","600","400","white","gray","3","2","2","15.406666666666448","[2.2599999999947613,17.19000000000233,14.845000000001164,16.724999999998545,17.92500000000291,16.70499999999447,16.37000000000262,15.644999999996799,17.56500000000233,16.830000000001746,16.720000000001164,16.099999999998545]","12","RDK","207","44743","0.0-0.0-207.0"
"-1","-1","false","a,l","l","200","true","200","1","0","0.5","2","-1","1","600","400","white","gray","3","2","2","16.645416666666886","[16.580000000001746,16.650000000001455,16.510000000002037,15.769999999996799,17.580000000001746,15.599999999998545,17.279999999998836,17.17500000000291,16.654999999998836,16.57499999999709,16.7300000000032,16.639999999999418]","12","RDK","208","44956","0.0-0.0-208.0"
"-1","-1","false","a,l","a","200","true","200","1","180","0.5","2","-1","1","600","400","white","gray","3","2","2","16.670000000000073","[15.665000000000873,17.3550000000032,16.93000000000029,16.619999999995343,16.645000000004075,15.845000000001164,17.57999999999447,16.60000000000582,15.814999999995052,17.44499999999971,16.910000000003492,16.62999999999738]","12","RDK","209","45173","0.0-0.0-209.0"
"-1","-1","false","a,l","a","200","true","200","1","180","0.5","2","-1","1","600","400","white","gray","3","2","2","18.127727272727167","[16.645000000004075,16.709999999999127,16.665000000000873,15.89999999999418,17.455000000001746,16.62000000000262,35.96499999999651,14.095000000001164,16.654999999998836,16.660000000003492,16.034999999996217]","11","RDK","210","45389","0.0-0.0-210.0"
"-1","-1","false","a,l","l","200","true","200","1","0","0.5","2","-1","1","600","400","white","gray","3","2","2","18.40899999999965","[17.330000000001746,16.609999999993306,16.67500000000291,16.62999999999738,16.005000000004657,16.400000000001455,35.48500000000058,15.694999999999709,16.50999999999476,16.75]","10","RDK","211","45608","0.0-0.0-211.0"
"-1","-1","false","a,l","l","200","true","200","1","0","0.5","2","-1","1","600","400","white","gray","3","2","2","16.280000000000047","[11.955000000001746,15.739999999997963,17.360000000000582,17.090000000003783,16.68000000000029,16.55999999999767,15.669999999998254,17.520000000004075,16.69999999999709,15.67500000000291,17.439999999995052,16.970000000001164]","12","RDK","212","45813","0.0-0.0-212.0"
"-1","-1","false","a,l","a","200","true","200","1","180","0.5","2","-1","1","600","400","white","gray","3","2","2","16.673333333333478","[16.400000000001455,16.895000000004075,16.709999999999127,16.625,15.854999999995925,17.160000000003492,17.080000000001746,16.709999999999127,16.55999999999767,16.69499999999971,16.160000000003492,17.229999999995925]","12","RDK","213","46026","0.0-0.0-213.0"
"-1","-1","false","a,l","l","200","true","200","1","0","0.5","2","-1","1","600","400","white","gray","3","2","2","16.722083333333405","[17.270000000004075,16.654999999998836,16.69000000000233,15.714999999996508,17.595000000001164,16.735000000000582,16.610000000000582,16.169999999998254,17.169999999998254,16.705000000001746,16.645000000004075,16.70499999999447]","12","RDK","214","46241","0.0-0.0-214.0"
"-1","-1","false","a,l","l","200","true","200","1","0","0.5","2","-1","1","600","400","white","gray","3","2","2","16.749166666666497","[17.275000000001455,15.894999999996799,17.389999999999418,17.05500000000029,16.665000000000873,16.639999999999418,15.950000000004366,17.409999999996217,16.635000000002037,15.934999999997672,17.17000000000553,16.969999999993888]","12","RDK","215","46457","0.0-0.0-215.0"
"-1","-1","false","a,l","a","200","true","200","1","180","0.5","2","-1","1","600","400","white","gray","3","2","2","16.67458333333343","[16.55999999999767,16.665000000000873,16.68000000000029,16.67500000000291,15.764999999999418,17.424999999995634,31.44000000000233,1.625,18.360000000000582,15.534999999996217,15.990000000005239,17.375]","12","RDK","216","46678","0.0-0.0-216.0"
"-1","-1","false","a,l","l","200","true","200","1","0","0.5","2","-1","1","600","400","white","gray","3","2","2","18.223181818181978","[17.150000000001455,16.535000000003492,16.639999999999418,16.659999999996217,16.62000000000262,16.68000000000029,34.150000000001455,16.054999999993015,16.62000000000262,16.825000000004366,16.5199999999968]","11","RDK","217","46893","0.0-0.0-217.0"
"-1","-1","false","a,l","l","200","true","200","1","0","0.5","2","-1","1","600","400","white","gray","3","2","2","16.674166666666377","[16.69000000000233,15.62999999999738,17.459999999999127,16.31999999999971,17.290000000000873,16.8949999999968,16.47500000000582,16.50999999999476,16.69000000000233,15.815000000002328,17.189999999995052,17.125]","12","RDK","218","47107","0.0-0.0-218.0"
"-1","-1","false","a,l","a","200","true","200","1","180","0.5","2","-1","1","600","400","white","gray","3","2","2","16.722916666666304","[16.869999999995343,17.11500000000524,15.589999999996508,17.74500000000262,15.724999999998545,17.415000000000873,16.904999999998836,16.760000000002037,16.52499999999418,16.7300000000032,15.720000000001164,17.57499999999709]","12","RDK","219","47327","0.0-0.0-219.0"
"-1","-1","false","a,l","a","200","true","200","1","180","0.5","2","-1","1","600","400","white","gray","3","2","2","16.750909090909275","[17.25,16.764999999999418,15.885000000002037,16.834999999999127,18.18000000000029,15.894999999996799,16.650000000001455,16.150000000001455,17.584999999999127,16.345000000001164,16.720000000001164]","11","RDK","220","47543","0.0-0.0-220.0"
"-1","-1","false","a,l","a","200","true","200","1","180","0.5","2","-1","1","600","400","white","gray","3","2","2","16.21875","[11.294999999998254,16.665000000000873,16.674999999995634,16.139999999999418,17.24500000000262,16.700000000004366,16.57499999999709,19.19999999999709,14.645000000004075,16.31999999999971,15.809999999997672,17.3550000000032]","12","RDK","221","47745","0.0-0.0-221.0"
"-1","-1","false","a,l","l","200","true","200","1","0","0.5","2","-1","1","600","400","white","gray","3","2","2","18.331500000000233","[16.665000000000873,16.81999999999971,16.485000000000582,16.589999999996508,16.640000000006694,15.769999999996799,35.44000000000233,15.57499999999709,16.69999999999709,16.630000000004657]","10","RDK","222","47959","0.0-0.0-222.0"
"-1","-1","false","a,l","a","200","true","200","1","180","0.5","2","-1","1","600","400","white","gray","3","2","2","15.13916666666652","[2.525000000001455,12.37000000000262,16.709999999999127,16.7699999999968,16.775000000001455,16.584999999999127,16.599999999998545,16.5,16.779999999998836,16.060000000004948,17.409999999996217,16.584999999999127]","12","RDK","223","48163","0.0-0.0-223.0"
"-1","-1","false","a,l","l","200","true","200","1","0","0.5","2","-1","1","600","400","white","gray","3","2","2","16.706250000000484","[16.785000000003492,16.62999999999738,16.69000000000233,16.790000000000873,16.214999999996508,17.030000000006112,16.814999999995052,16.49500000000262,16.669999999998254,16.69000000000233,16.610000000000582,17.05500000000029]","12","RDK","224","48378","0.0-0.0-224.0"
"-1","-1","false","a,l","l","200","true","200","1","0","0.5","2","-1","1","600","400","white","gray","3","2","2","16.717272727272675","[15.965000000003783,17.77499999999418,15.760000000002037,17.035000000003492,17.909999999996217,15.919999999998254,15.780000000006112,17.409999999996217,17.05000000000291,16.68000000000029,16.604999999995925]","11","RDK","225","48592","0.0-0.0-225.0"
"-1","-1","false","a,l","l","200","true","200","1","0","0.5","2","-1","1","600","400","white","gray","3","2","2","16.32375000000017","[12.639999999999418,16.74500000000262,15.739999999997963,17.630000000004657,16.739999999997963,16.044999999998254,17.040000000000873,15.74500000000262,17.540000000000873,16.77499999999418,15.805000000000291,17.44000000000233]","12","RDK","226","48799","0.0-0.0-226.0"
"-1","-1","false","a,l","l","200","true","200","1","0","0.5","2","-1","1","600","400","white","gray","3","2","2","16.754999999999807","[17.68000000000029,16.580000000001746,16.709999999999127,16.654999999998836,16.650000000001455,16.05500000000029,32.34499999999389,1.6600000000034925,17.159999999996217,16.210000000006403,16.75999999999476,16.595000000001164]","12","RDK","227","49012","0.0-0.0-227.0"
"-1","-1","false","a,l","l","200","true","200","1","0","0.5","2","-1","1","600","400","white","gray","3","2","2","16.73166666666657","[17.414999999993597,16.835000000006403,16.729999999995925,16.55999999999767,16.79500000000553,15.849999999998545,17.224999999998545,15.665000000000873,17.364999999997963,17.035000000003492,16.639999999999418,16.665000000000873]","12","RDK","228","49225","0.0-0.0-228.0"
"-1","-1","false","a,l","l","200","true","200","1","0","0.5","2","-1","1","600","400","white","gray","3","2","2","16.679166666666788","[16.6449999999968,16.610000000000582,15.860000000000582,17.275000000001455,16.94000000000233,16.625,31.39999999999418,1.75,17.345000000001164,16.19499999999971,15.97500000000582,17.529999999998836]","12","RDK","229","49444","0.0-0.0-229.0"
"-1","-1","false","a,l","a","200","true","200","1","180","0.5","2","-1","1","600","400","white","gray","3","2","2","16.627499999999902","[16.400000000001455,17.44999999999709,16.389999999999418,15.915000000000873,16.80999999999767,15.940000000002328,17.735000000000582,16.279999999998836,16.75499999999738,16.55500000000029,16.760000000002037,16.540000000000873]","12","RDK","230","49662","0.0-0.0-230.0"
"-1","-1","false","a,l","l","200","true","200","1","0","0.5","2","-1","1","600","400","white","gray","3","2","2","16.672916666666424","[16.05500000000029,17.2699999999968,16.660000000003492,16.744999999995343,19.410000000003492,14.25,16.169999999998254,15.705000000001746,17.595000000001164,16.040000000000873,17.44999999999709,16.724999999998545]","12","RDK","231","49877","0.0-0.0-231.0"
"-1","-1","false","a,l","a","200","true","200","1","180","0.5","2","-1","1","600","400","white","gray","3","2","2","18.21400000000067","[16.3550000000032,16.62999999999738,15.755000000004657,17.299999999995634,17.05000000000291,16.635000000002037,35.854999999995925,14.415000000000873,16.360000000000582,15.785000000003492]","10","RDK","232","50091","0.0-0.0-232.0"
"-1","-1","false","a,l","a","200","true","200","1","180","0.5","2","-1","1","600","400","white","gray","3","2","2","18.093636363636257","[15.349999999998545,16.63499999999476,16.69000000000233,16.62000000000262,16.674999999995634,16.700000000004366,33.81999999999971,16.494999999995343,16.400000000001455,16.035000000003492,17.610000000000582]","11","RDK","233","50298","0.0-0.0-233.0"
"-1","-1","false","a,l","l","200","true","200","1","0","0.5","2","-1","1","600","400","white","gray","3","2","2","16.66333333333326","[16.714999999996508,16.020000000004075,17.31999999999971,16.354999999995925,16.590000000003783,16.964999999996508,16.6050000000032,16.584999999999127,16.709999999999127,16.235000000000582,17.169999999998254,16.69000000000233]","12","RDK","234","50512","0.0-0.0-234.0"
"-1","-1","false","a,l","a","200","true","200","1","180","0.5","2","-1","1","600","400","white","gray","3","2","2","16.65374999999949","[17.30999999999767,15.794999999998254,17.610000000000582,15.635000000002037,16.80500000000029,17.589999999996508,16.630000000004657,16.75,16.564999999995052,16.650000000001455,16.69499999999971,15.809999999997672]","12","RDK","235","50724","0.0-0.0-235.0"
"-1","-1","false","a,l","l","200","true","200","1","0","0.5","2","-1","1","600","400","white","gray","3","2","2","18.126363636363582","[16.864999999997963,15.669999999998254,33.3550000000032,17.625,16.80000000000291,15.909999999996217,17.660000000003492,16.529999999998836,16.81999999999971,16.514999999999418,15.639999999999418]","11","RDK","236","50944","0.0-0.0-236.0"
"-1","-1","false","a,l","a","200","true","200","1","180","0.5","2","-1","1","600","400","white","gray","3","2","2","15.217083333332994","[2.664999999993597,14.560000000004948,16.260000000002037,16.664999999993597,16.635000000002037,16.7300000000032,16.00499999999738,17.135000000002037,16.659999999996217,16.165000000000873,17.239999999997963,15.885000000002037]","12","RDK","237","51158","0.0-0.0-237.0"
"-1","-1","false","a,l","a","200","true","200","1","180","0.5","2","-1","1","600","400","white","gray","3","2","2","16.604583333333114","[16.580000000001746,16.7699999999968,16.589999999996508,15.585000000006403,17.339999999996508,17.095000000001164,31.610000000000582,1.764999999999418,17.264999999999418,16.150000000001455,16.610000000000582,15.894999999996799]","12","RDK","238","51378","0.0-0.0-238.0"
"-1","-1","false","a,l","a","200","true","200","1","180","0.5","2","-1","1","600","400","white","gray","3","2","2","16.673749999999927","[16.970000000001164,16.57999999999447,16.705000000001746,16.57499999999709,16.635000000002037,16.81500000000233,15.674999999995634,17.275000000001455,16.875,16.67000000000553,16.619999999995343,16.69000000000233]","12","RDK","239","51592","0.0-0.0-239.0"
"-1","-1","false","a,l","a","200","true","200","1","180","0.5","2","-1","1","600","400","white","gray","3","2","2","16.63499999999961","[16.6449999999968,15.940000000002328,17.404999999998836,16.69000000000233,16.70499999999447,16.595000000001164,31.455000000001746,1.7299999999959255,16.80500000000029,16.090000000003783,17.330000000001746,16.229999999995925]","12","RDK","240","51808","0.0-0.0-240.0"
"-1","-1","false","a,l","l","200","true","200","1","0","0.5","2","-1","1","600","400","white","gray","3","2","2","16.604999999999563","[16.529999999998836,16.775000000001455,16.56999999999971,16.674999999995634,16.25,17.18000000000029,16.630000000004657,17.614999999997963,16.19000000000233,15.309999999997672,17.650000000001455,15.884999999994761]","12","RDK","241","52029","0.0-0.0-241.0"
"-1","-1","false","a,l","a","200","true","200","1","180","0.5","2","-1","1","600","400","white","gray","3","2","2","16.677083333333332","[16.924999999995634,16.654999999998836,16.560000000004948,16.659999999996217,16.669999999998254,16.630000000004657,15.794999999998254,17.349999999998545,16.93000000000029,16.599999999998545,16.67500000000291,16.67500000000291]","12","RDK","242","52246","0.0-0.0-242.0"
"-1","-1","false","a,l","a","200","true","200","1","180","0.5","2","-1","1","600","400","white","gray","3","2","2","16.722083333333405","[16.56999999999971,15.834999999999127,17.49500000000262,16.790000000000873,16.50499999999738,32.31999999999971,1.9950000000026193,16.229999999995925,16.280000000006112,16.099999999998545,17.534999999996217,17.010000000002037]","12","RDK","243","52463","0.0-0.0-243.0"
"-1","-1","false","a,l","l","200","true","200","1","0","0.5","2","-1","1","600","400","white","gray","3","2","2","18.08090909090904","[16.55999999999767,16.68000000000029,16.669999999998254,16.660000000003492,16.119999999995343,17.30000000000291,33.979999999995925,15.735000000000582,16.910000000003492,16.30999999999767,15.965000000003783]","11","RDK","244","52679","0.0-0.0-244.0"
"-1","-1","false","a,l","l","200","true","200","1","0","0.5","2","-1","1","600","400","white","gray","3","2","2","18.227272727272727","[16.089999999996508,17.654999999998836,16.660000000003492,15.854999999995925,17.435000000004948,16.69499999999971,34.104999999995925,16.020000000004075,16.70499999999447,16.785000000003492,16.49500000000262]","11","RDK","245","52896","0.0-0.0-245.0"
"-1","-1","false","a,l","a","200","true","200","1","180","0.5","2","-1","1","600","400","white","gray","3","2","2","16.69333333333331","[16.840000000003783,15.69999999999709,17.285000000003492,16.82499999999709,16.709999999999127,16.5,16.69499999999971,16.705000000001746,16.62000000000262,16.234999999993306,17.1050000000032,17.099999999998545]","12","RDK","246","53113","0.0-0.0-246.0"
"-1","-1","false","a,l","l","200","true","200","1","0","0.5","2","-1","1","600","400","white","gray","3","2","2","16.638333333333623","[16.260000000002037,16.720000000001164,16.610000000000582,16.705000000001746,16.099999999998545,17.360000000000582,16.534999999996217,15.864999999997963,17.450000000004366,16.729999999995925,16.655000000006112,16.669999999998254]","12","RDK","247","53326","0.0-0.0-247.0"
"-1","-1","false","a,l","a","200","true","200","1","180","0.5","2","-1","1","600","400","white","gray","3","2","2","16.70090909090901","[17.029999999998836,16.25499999999738,17.090000000003783,16.64999999999418,16.625,16.710000000006403,16.669999999998254,16.415000000000873,16.970000000001164,16.664999999993597,16.630000000004657]","11","RDK","248","53541","0.0-0.0-248.0"
"-1","-1","false","a,l","l","200","true","200","1","0","0.5","2","-1","1","600","400","white","gray","3","2","2","16.58791666666669","[15.559999999997672,16.69499999999971,15.880000000004657,17.339999999996508,16.845000000001164,16.650000000001455,32.13499999999476,1.9700000000011642,16.410000000003492,16.19499999999971,16.07499999999709,17.30000000000291]","12","RDK","249","53746","0.0-0.0-249.0"
"-1","-1","false","a,l","l","200","true","200","1","0","0.5","2","-1","1","600","400","white","gray","3","2","2","18.079545454545453","[16.265000000006694,16.589999999996508,16.724999999998545,16.650000000001455,16.67500000000291,15.904999999998836,34.75,16.150000000001455,16.25999999999476,17.005000000004657,15.89999999999418]","11","RDK","250","53962","0.0-0.0-250.0"
"-1","-1","false","a,l","l","200","true","200","1","0","0.5","2","-1","1","600","400","white","gray","3","2","2","18.193181818181817","[16.119999999995343,17.185000000004948,16.654999999998836,16.650000000001455,16.639999999999418,16.69999999999709,34.17500000000291,15.604999999995925,16.919999999998254,16.80000000000291,16.67500000000291]","11","RDK","251","54180","0.0-0.0-251.0"
"-1","-1","false","a,l","a","200","true","200","1","180","0.5","2","-1","1","600","400","white","gray","3","2","2","15.26708333333348","[2.6450000000040745,15.014999999999418,14.864999999997963,17.345000000001164,17.00499999999738,16.67000000000553,16.799999999995634,16.385000000002037,16.55500000000029,16.714999999996508,15.820000000006985,17.38499999999476]","12","RDK","252","54398","0.0-0.0-252.0"
"-1","-1","false","a,l","l","200","true","200","1","0","0.5","2","-1","1","600","400","white","gray","3","2","2","16.657916666667006","[16.584999999999127,30.43000000000029,2.3550000000032014,17.139999999999418,16.709999999999127,15.979999999995925,17.415000000000873,16.61500000000524,15.919999999998254,17.400000000001455,16.639999999999418,16.705000000001746]","12","RDK","253","54613","0.0-0.0-253.0"
"-1","-1","false","a,l","a","200","true","200","1","180","0.5","2","-1","1","600","400","white","gray","3","2","2","16.66083333333275","[16.049999999995634,17.235000000000582,16.69999999999709,16.6050000000032,16.31999999999971,16.220000000001164,17.510000000002037,16.659999999996217,16.209999999999127,17.19000000000233,16.610000000000582,16.619999999995343]","12","RDK","254","54828","0.0-0.0-254.0"
"-1","-1","false","a,l","l","200","true","200","1","0","0.5","2","-1","1","600","400","white","gray","3","2","2","18.16545454545452","[16.56500000000233,16.735000000000582,15.62999999999738,17.415000000000873,16.9800000000032,16.674999999995634,35.650000000001455,14.30000000000291,16.69499999999971,15.789999999993597,17.385000000002037]","11","RDK","255","55043","0.0-0.0-255.0"
