"rt","key_press","correct","choices","correct_choice","trial_duration","response_ends_trial","number_of_dots","number_of_sets","coherent_direction","coherence","dot_radius","dot_life","move_distance","aperture_width","aperture_height","dot_color","background_color","RDK_type","aperture_type","reinsert_type","frame_rate","frame_rate_array","number_of_frames","trial_type","trial_index","time_elapsed","internal_node_id"
"-1","-1","false","a,l","l","200","true","200","1","0","0.5","2","-1","1","600","400","white","gray","3","2","2","20.933333333333334","[9.900000000000006,10.199999999999989,68,14.199999999999989,16.5,15.800000000000011,17.30000000000001,16.80000000000001,19.69999999999999]","9","RDK","0","230","0.0-0.0-0.0"
"-1","-1","false","a,l","a","200","true","200","1","180","0.5","2","-1","1","600","400","white","gray","3","2","2","18.10000000000001","[16.400000000000034,16.30000000000001,44.69999999999999,5,15.900000000000034,17.499999999999943,16.399999999999977,17,16.600000000000136,16.59999999999991,16.700000000000045]","11","RDK","1","435","0.0-0.0-1.0"
"-1","-1","false","a,l","l","200","true","200","1","0","0.5","2","-1","1","600","400","white","gray","3","2","2","16.575","[16.299999999999955,15.800000000000068,17.299999999999955,15.599999999999909,17.700000000000045,30.600000000000023,2.1000000000001364,17.499999999999886,16.699999999999932,16.500000000000114,16.59999999999991,16.200000000000045]","12","RDK","2","651","0.0-0.0-2.0"
"-1","-1","false","a,l","l","200","true","200","1","0","0.5","2","-1","1","600","400","white","gray","3","2","2","17.84545454545455","[44.700000000000045,5.100000000000023,13.199999999999932,16.699999999999932,16.600000000000136,16.699999999999932,16.40000000000009,17,16.499999999999886,16.90000000000009,16.5]","11","RDK","3","869","0.0-0.0-3.0"
"-1","-1","false","a,l","a","200","true","200","1","180","0.5","2","-1","1","600","400","white","gray","3","2","2","18.136363636363637","[15.999999999999773,17.000000000000227,15.5,48.899999999999864,3.400000000000091,15.200000000000045,16.59999999999991,16,17.700000000000045,15.5,17.700000000000045]","11","RDK","4","1083","0.0-0.0-4.0"
"-1","-1","false","a,l","a","200","true","200","1","180","0.5","2","-1","1","600","400","white","gray","3","2","2","18.369999999999983","[16.59999999999991,17.09999999999991,15.700000000000045,17.700000000000045,16.59999999999991,45.00000000000023,12.599999999999909,9.299999999999727,16.40000000000032,16.699999999999818]","10","RDK","5","1299","0.0-0.0-5.0"
"-1","-1","false","a,l","l","200","true","200","1","0","0.5","2","-1","1","600","400","white","gray","3","2","2","16.42500000000001","[14,16.800000000000182,16.59999999999991,26.5,6.900000000000091,16.09999999999968,17.200000000000273,16.799999999999955,16.600000000000136,16.59999999999991,16.699999999999818,16.300000000000182]","12","RDK","6","1504","0.0-0.0-6.0"
"-1","-1","false","a,l","l","200","true","200","1","0","0.5","2","-1","1","600","400","white","gray","3","2","2","20.31111111111113","[17.200000000000273,15.899999999999864,17.500000000000227,16.09999999999991,17.199999999999818,54.40000000000009,12.200000000000045,16.799999999999955,15.5]","9","RDK","7","1715","0.0-0.0-7.0"
"-1","-1","false","a,l","a","200","true","200","1","180","0.5","2","-1","1","600","400","white","gray","3","2","2","21.9777777777778","[13.900000000000091,17.199999999999818,72.5,10.800000000000182,15.799999999999955,17.700000000000045,16.59999999999991,16.59999999999991,16.700000000000273]","9","RDK","8","1920","0.0-0.0-8.0"
"-1","-1","false","a,l","a","200","true","200","1","180","0.5","2","-1","1","600","400","white","gray","3","2","2","18.35","[16.699999999999818,15.800000000000182,17.59999999999991,15.900000000000091,17.59999999999991,40.09999999999991,9.100000000000364,17.399999999999636,16.700000000000273,16.59999999999991]","10","RDK","9","2133","0.0-0.0-9.0"
"-1","-1","false","a,l","a","200","true","200","1","180","0.5","2","-1","1","600","400","white","gray","3","2","2","17.945454545454552","[13.900000000000091,16.899999999999636,16.5,47.70000000000027,1.2999999999997272,17.199999999999818,17.300000000000182,16.500000000000455,16.699999999999363,16.700000000000273,16.700000000000273]","11","RDK","10","2336","0.0-0.0-10.0"
"-1","-1","false","a,l","a","200","true","200","1","180","0.5","2","-1","1","600","400","white","gray","3","2","2","16.663636363636382","[16.5,16.09999999999991,17.300000000000182,16.59999999999991,15.699999999999818,17.59999999999991,31.300000000000637,1.0999999999994543,16.700000000000273,17.399999999999636,17.000000000000455]","11","RDK","11","2550","0.0-0.0-11.0"
"-1","-1","false","a,l","l","200","true","200","1","0","0.5","2","-1","1","600","400","white","gray","3","2","2","19.7","[13.799999999999727,16.600000000000364,60.59999999999991,5.099999999999909,17.59999999999991,16.699999999999818,16.700000000000273,16.700000000000273,16.699999999999363,16.500000000000455]","10","RDK","12","2752","0.0-0.0-12.0"
"-1","-1","false","a,l","a","200","true","200","1","180","0.5","2","-1","1","600","400","white","gray","3","2","2","18.30999999999999","[16.699999999999818,16.5,16.699999999999818,16.600000000000364,16.799999999999727,48,3.699999999999818,14.600000000000364,16.299999999999727,17.200000000000273]","10","RDK","13","2966","0.0-0.0-13.0"
"-1","-1","false","a,l","l","200","true","200","1","0","0.5","2","-1","1","600","400","white","gray","3","2","2","21.4","[12.599999999999909,19.09999999999991,47.100000000000364,17.09999999999991,17.40000000000009,15.900000000000091,17.5,16.700000000000273,16,34.599999999999454]","10","RDK","14","3185","0.0-0.0-14.0"
"-1","-1","false","a,l","a","200","true","200","1","180","0.5","2","-1","1","600","400","white","gray","3","2","2","18.018181818181844","[15.099999999999909,16.800000000000182,16.600000000000364,15.799999999999727,17.899999999999636,40.40000000000009,8.600000000000364,17.299999999999727,16.800000000000182,15.599999999999909,17.300000000000182]","11","RDK","15","3404","0.0-0.0-15.0"
"-1","-1","false","a,l","a","200","true","200","1","180","0.5","2","-1","1","600","400","white","gray","3","2","2","18.35","[16.699999999999363,43.400000000000546,6.299999999999727,17.000000000000455,16.799999999999727,16.699999999999818,15.900000000000091,17.300000000000182,16.899999999999636,16.500000000000455]","10","RDK","16","3616","0.0-0.0-16.0"
"-1","-1","false","a,l","a","200","true","200","1","180","0.5","2","-1","1","600","400","white","gray","3","2","2","17.990909090909142","[14.400000000000546,16.699999999999363,15.800000000000182,16.59999999999991,17.600000000000364,32.59999999999991,17.59999999999991,16.5,16.800000000000182,16.699999999999818,16.600000000000364]","11","RDK","17","3821","0.0-0.0-17.0"
"-1","-1","false","a,l","a","200","true","200","1","180","0.5","2","-1","1","600","400","white","gray","3","2","2","15.639999999999919","[5.9999999999990905,17.000000000000455,16.5,15.900000000000091,17.700000000000273,16.699999999999818,16.699999999999818,16.50000000000091,16.799999999999272,16.599999999999454]","10","RDK","18","4033","0.0-0.0-18.0"
"-1","-1","false","a,l","l","200","true","200","1","0","0.5","2","-1","1","600","400","white","gray","3","2","2","17.972727272727255","[14.300000000000182,16.599999999999454,16.700000000000728,38.099999999999454,11,17.600000000000364,16.699999999999818,16.600000000000364,16.599999999999454,15.900000000000546,17.599999999999454]","11","RDK","19","4238","0.0-0.0-19.0"
"-1","-1","false","a,l","l","200","true","200","1","0","0.5","2","-1","1","600","400","white","gray","3","2","2","16.658333333333378","[15.400000000000546,16.700000000000728,17.299999999999272,16.300000000000182,17.5,16.100000000000364,26.49999999999909,6.800000000000182,16.800000000000182,17.100000000000364,16.699999999999818,16.699999999999818]","12","RDK","20","4450","0.0-0.0-20.0"
"-1","-1","false","a,l","l","200","true","200","1","0","0.5","2","-1","1","600","400","white","gray","3","2","2","17.954545454545453","[15.100000000000364,39.49999999999909,9.600000000000364,17.400000000000546,16.600000000000364,16.799999999999272,16.599999999999454,16.700000000000728,16.699999999999818,15.699999999999818,16.800000000000182]","11","RDK","21","4668","0.0-0.0-21.0"
"-1","-1","false","a,l","a","200","true","200","1","180","0.5","2","-1","1","600","400","white","gray","3","2","2","16.64166666666665","[16.100000000000364,16.299999999999272,16.200000000000728,30.199999999999818,3.0999999999994543,24.100000000000364,9.800000000000182,17,16.599999999999454,16.80000000000109,16.899999999999636,16.599999999999454]","12","RDK","22","4884","0.0-0.0-22.0"
"-1","-1","false","a,l","a","200","true","200","1","180","0.5","2","-1","1","600","400","white","gray","3","2","2","16.727272727272727","[17.600000000000364,16.49999999999909,16.600000000000364,16.700000000000728,16.699999999999818,15.899999999999636,29,4.700000000000728,24.19999999999891,8.600000000000364,17.5]","11","RDK","23","5099","0.0-0.0-23.0"
"-1","-1","false","a,l","l","200","true","200","1","0","0.5","2","-1","1","600","400","white","gray","3","2","2","16.525000000000016","[14.799999999999272,16.699999999999818,16.700000000000728,16.699999999999818,22.699999999999818,9.800000000000182,16.399999999999636,17.800000000000182,16.100000000000364,17.300000000000182,16.299999999999272,17.00000000000091]","12","RDK","24","5305","0.0-0.0-24.0"
"-1","-1","false","a,l","a","200","true","200","1","180","0.5","2","-1","1","600","400","white","gray","3","2","2","18.290000000000056","[16.199999999999818,16.800000000000182,16.5,16.800000000000182,16.700000000000728,16.599999999999454,33.69999999999982,16.199999999999818,16.899999999999636,16.50000000000091]","10","RDK","25","5517","0.0-0.0-25.0"
"-1","-1","false","a,l","a","200","true","200","1","180","0.5","2","-1","1","600","400","white","gray","3","2","2","17.899999999999967","[14.5,16.799999999999272,46.100000000000364,2.800000000000182,17.600000000000364,16.699999999999818,16.700000000000728,15.699999999999818,17.69999999999891,15.800000000001091,16.49999999999909]","11","RDK","26","5720","0.0-0.0-26.0"
"-1","-1","false","a,l","l","200","true","200","1","0","0.5","2","-1","1","600","400","white","gray","3","2","2","18.380000000000017","[16,17.800000000000182,16.699999999999818,16.899999999999636,36.100000000000364,13.600000000000364,16.69999999999891,16.700000000000728,16.699999999999818,16.600000000000364]","10","RDK","27","5934","0.0-0.0-27.0"
"-1","-1","false","a,l","l","200","true","200","1","0","0.5","2","-1","1","600","400","white","gray","3","2","2","17.927272727272626","[14.199999999999818,16.699999999999818,16.699999999999818,16.599999999999454,16.700000000000728,16.699999999999818,16.700000000000728,16.699999999999818,42.899999999999636,6.399999999999636,16.899999999999636]","11","RDK","28","6137","0.0-0.0-28.0"
"-1","-1","false","a,l","a","200","true","200","1","180","0.5","2","-1","1","600","400","white","gray","3","2","2","16.627272727272693","[16.100000000000364,16.299999999999272,17.200000000000728,16.400000000000546,27.99999999999909,4.900000000000546,17,16.899999999999636,16.700000000000728,16.699999999999818,16.69999999999891]","11","RDK","29","6350","0.0-0.0-29.0"
"-1","-1","false","a,l","l","200","true","200","1","0","0.5","2","-1","1","600","400","white","gray","3","2","2","17.75454545454539","[12.299999999999272,16.300000000000182,16.599999999999454,16.700000000000728,16.699999999999818,16.699999999999818,16.899999999999636,36,13.699999999999818,16.100000000001273,17.299999999999272]","11","RDK","30","6554","0.0-0.0-30.0"
"-1","-1","false","a,l","l","200","true","200","1","0","0.5","2","-1","1","600","400","white","gray","3","2","2","16.727272727272727","[16.600000000000364,16.400000000000546,17.199999999999818,30.099999999999454,3.100000000000364,17,16.899999999999636,16.800000000000182,16.600000000000364,16.699999999999818,16.599999999999454]","11","RDK","31","6767","0.0-0.0-31.0"
"-1","-1","false","a,l","l","200","true","200","1","0","0.5","2","-1","1","600","400","white","gray","3","2","2","17.954545454545453","[14.400000000000546,16.600000000000364,16.599999999999454,16.699999999999818,16.600000000000364,36.899999999999636,13.100000000000364,16.699999999999818,16.699999999999818,16.600000000000364,16.599999999999454]","11","RDK","32","6970","0.0-0.0-32.0"
"-1","-1","false","a,l","l","200","true","200","1","0","0.5","2","-1","1","600","400","white","gray","3","2","2","18.072727272727207","[16.19999999999891,38.80000000000018,10.300000000000182,17.100000000000364,16.5,17.399999999999636,16.300000000000182,17.099999999999454,16.50000000000091,16.800000000000182,15.799999999999272]","11","RDK","33","7188","0.0-0.0-33.0"
"-1","-1","false","a,l","a","200","true","200","1","180","0.5","2","-1","1","600","400","white","gray","3","2","2","16.74545454545453","[17.5,16.600000000000364,16.099999999999454,17.199999999999818,22.400000000000546,11,16.699999999999818,16.599999999999454,16.800000000000182,16.600000000000364,16.699999999999818]","11","RDK","34","7401","0.0-0.0-34.0"
"-1","-1","false","a,l","l","200","true","200","1","0","0.5","2","-1","1","600","400","white","gray","3","2","2","16.458333333333258","[14.399999999998727,16.50000000000091,16.69999999999891,16.700000000000728,16.699999999999818,16.899999999999636,16.400000000000546,31.599999999999454,2.4000000000005457,15.399999999999636,17.30000000000109,16.49999999999909]","12","RDK","35","7604","0.0-0.0-35.0"
"-1","-1","false","a,l","l","200","true","200","1","0","0.5","2","-1","1","600","400","white","gray","3","2","2","20.609090909090977","[15.199999999999818,16.600000000000364,42.19999999999982,7.199999999999818,17.100000000000364,16.99999999999909,16.800000000000182,16.600000000000364,16.600000000000364,16.5,44.900000000000546]","11","RDK","36","7847","0.0-0.0-36.0"
"-1","-1","false","a,l","a","200","true","200","1","180","0.5","2","-1","1","600","400","white","gray","3","2","2","18.39999999999991","[16.800000000000182,17.19999999999891,16.800000000002,32.699999999998,17.100000000001273,16.19999999999891,16.199999999999818,17.80000000000109,16,17.19999999999891]","10","RDK","37","8051","0.0-0.0-37.0"
"-1","-1","false","a,l","l","200","true","200","1","0","0.5","2","-1","1","600","400","white","gray","3","2","2","16.391666666666726","[14.199999999998909,16.400000000001455,16.899999999999636,16.700000000000728,16.5,16.799999999999272,16.599999999998545,23.900000000001455,9.399999999999636,16.700000000000728,15.899999999999636,16.700000000000728]","12","RDK","38","8255","0.0-0.0-38.0"
"-1","-1","false","a,l","a","200","true","200","1","180","0.5","2","-1","1","600","400","white","gray","3","2","2","16.591666666666697","[15.399999999999636,17.30000000000109,16.899999999999636,25.100000000000364,8.300000000001091,16.600000000000364,15.899999999999636,16.700000000000728,16.49999999999818,16.600000000000364,17.5,16.299999999999272]","12","RDK","39","8471","0.0-0.0-39.0"
"-1","-1","false","a,l","l","200","true","200","1","0","0.5","2","-1","1","600","400","white","gray","3","2","2","18.063636363636263","[16.200000000000728,16.099999999998545,17.5,16.399999999999636,16.900000000001455,35.100000000000364,14.899999999999636,16.5,15.700000000000728,16.69999999999891,16.69999999999891]","11","RDK","40","8687","0.0-0.0-40.0"
"-1","-1","false","a,l","a","200","true","200","1","180","0.5","2","-1","1","600","400","white","gray","3","2","2","19.870000000000072","[64.40000000000146,3,15.5,16.600000000000364,16.69999999999891,16.5,16.799999999999272,16.899999999999636,16.400000000001455,15.899999999999636]","10","RDK","41","8905","0.0-0.0-41.0"
"-1","-1","false","a,l","l","200","true","200","1","0","0.5","2","-1","1","600","400","white","gray","3","2","2","18.170000000000073","[15.600000000000364,16,16.700000000000728,16.69999999999709,40.00000000000182,10.399999999999636,16.899999999999636,16.600000000000364,16.80000000000109,16]","10","RDK","42","9118","0.0-0.0-42.0"
"-1","-1","false","a,l","a","200","true","200","1","180","0.5","2","-1","1","600","400","white","gray","3","2","2","19.760000000000037","[22,8,16.899999999999636,16.80000000000109,16.899999999999636,16.99999999999818,15.900000000001455,53.50000000000182,14.099999999998545,16.5]","10","RDK","43","9322","0.0-0.0-43.0"
"-1","-1","false","a,l","l","200","true","200","1","0","0.5","2","-1","1","600","400","white","gray","3","2","2","16.709090909090843","[17.099999999998545,15.700000000000728,17,16.799999999999272,22.400000000001455,11.299999999999272,16.80000000000109,16.899999999999636,16.49999999999818,16.700000000000728,16.600000000000364]","11","RDK","44","9535","0.0-0.0-44.0"
"-1","-1","false","a,l","l","200","true","200","1","0","0.5","2","-1","1","600","400","white","gray","3","2","2","16.458333333333183","[13.999999999998181,16.80000000000109,16.5,16.799999999999272,16.599999999998545,15.800000000001091,17.69999999999891,28.200000000000728,4.700000000000728,16.200000000000728,17.399999999999636,16.799999999999272]","12","RDK","45","9738","0.0-0.0-45.0"
"-1","-1","false","a,l","l","200","true","200","1","0","0.5","2","-1","1","600","400","white","gray","3","2","2","18.310000000000038","[16.5,16.5,37.70000000000073,11.400000000001455,16.899999999999636,17.399999999999636,16.399999999999636,16.899999999999636,16.899999999999636,16.5]","10","RDK","46","9951","0.0-0.0-46.0"
"-1","-1","false","a,l","l","200","true","200","1","0","0.5","2","-1","1","600","400","white","gray","3","2","2","18.000000000000167","[14.600000000000364,16.600000000000364,16.600000000000364,16.69999999999891,16.69999999999891,36.30000000000109,13.299999999999272,17.100000000002183,15.899999999999636,17.399999999999636,16.80000000000109]","11","RDK","47","10154","0.0-0.0-47.0"
"-1","-1","false","a,l","a","200","true","200","1","180","0.5","2","-1","1","600","400","white","gray","3","2","2","18.17272727272724","[16.299999999999272,32.79999999999927,16.899999999999636,17.200000000000728,16.600000000000364,16.700000000000728,16.69999999999891,15.799999999999272,17.400000000001455,16.799999999999272,16.700000000000728]","11","RDK","48","10369","0.0-0.0-48.0"
"-1","-1","false","a,l","a","200","true","200","1","180","0.5","2","-1","1","600","400","white","gray","3","2","2","18.018181818181883","[15.200000000000728,16.799999999999272,16.599999999998545,35.100000000000364,15,16.600000000000364,16.700000000000728,16.600000000000364,16.69999999999891,16.700000000000728,16.200000000000728]","11","RDK","49","10593","0.0-0.0-49.0"
"-1","-1","false","a,l","a","200","true","200","1","180","0.5","2","-1","1","600","400","white","gray","3","2","2","20.466666666666747","[17.399999999999636,16.600000000000364,16.80000000000109,16.799999999999272,16.599999999998545,15.800000000001091,54.79999999999927,12.399999999999636,17.00000000000182]","9","RDK","50","10802","0.0-0.0-50.0"
"-1","-1","false","a,l","a","200","true","200","1","180","0.5","2","-1","1","600","400","white","gray","3","2","2","17.963636363636397","[14.100000000000364,16,17.399999999999636,35.30000000000109,14.799999999999272,16.600000000000364,16.599999999998545,16.700000000000728,15.899999999999636,17.5,16.700000000000728]","11","RDK","51","11005","0.0-0.0-51.0"
"-1","-1","false","a,l","l","200","true","200","1","0","0.5","2","-1","1","600","400","white","gray","3","2","2","16.581818181818313","[15.700000000000728,16.700000000000728,16.700000000000728,15.899999999999636,17.299999999999272,19.700000000000728,13.799999999999272,23.5,9.200000000000728,17.200000000000728,16.69999999999891]","11","RDK","52","11219","0.0-0.0-52.0"
"-1","-1","false","a,l","l","200","true","200","1","0","0.5","2","-1","1","600","400","white","gray","3","2","2","16.475000000000062","[14.5,16.600000000000364,16.600000000000364,20.099999999998545,12.800000000001091,17.200000000000728,16.700000000000728,16.69999999999709,16.700000000000728,16.600000000000364,16.700000000000728,16.5]","12","RDK","53","11422","0.0-0.0-53.0"
"-1","-1","false","a,l","l","200","true","200","1","0","0.5","2","-1","1","600","400","white","gray","3","2","2","16.65000000000009","[16.30000000000109,16.80000000000109,16.599999999998545,16.799999999999272,16.600000000000364,24.399999999999636,8.399999999999636,17.00000000000182,16.899999999999636,16.599999999998545,16.700000000000728,16.700000000000728]","12","RDK","54","11636","0.0-0.0-54.0"
"-1","-1","false","a,l","l","200","true","200","1","0","0.5","2","-1","1","600","400","white","gray","3","2","2","18.15454545454552","[16.299999999999272,35.19999999999891,14.300000000001091,17.100000000000364,16.200000000000728,17.19999999999891,16.69999999999891,16.600000000002183,16.69999999999891,16.700000000000728,16.700000000000728]","11","RDK","55","11852","0.0-0.0-55.0"
"-1","-1","false","a,l","a","200","true","200","1","180","0.5","2","-1","1","600","400","white","gray","3","2","2","17.981818181818117","[15.499999999998181,16.600000000000364,37.20000000000073,12.899999999999636,16.50000000000182,16.899999999999636,16.600000000000364,16.69999999999709,16.700000000000728,16.600000000000364,15.600000000000364]","11","RDK","56","12077","0.0-0.0-56.0"
"-1","-1","false","a,l","l","200","true","200","1","0","0.5","2","-1","1","600","400","white","gray","3","2","2","16.654545454545357","[16.80000000000109,17.299999999999272,16.299999999999272,17,15.800000000001091,30.299999999999272,3.8000000000010914,26.399999999997817,6.500000000001819,16.69999999999891,16.299999999999272]","11","RDK","57","12285","0.0-0.0-57.0"
"-1","-1","false","a,l","l","200","true","200","1","0","0.5","2","-1","1","600","400","white","gray","3","2","2","16.34999999999991","[13.799999999999272,16.600000000000364,16,17.400000000001455,18.69999999999891,14.700000000000728,16.599999999998545,15.700000000000728,17.799999999999272,16.5,16.80000000000109,15.599999999998545]","12","RDK","58","12488","0.0-0.0-58.0"
"-1","-1","false","a,l","l","200","true","200","1","0","0.5","2","-1","1","600","400","white","gray","3","2","2","16.683333333333394","[16.200000000000728,17.69999999999891,15.899999999999636,17.600000000000364,16.30000000000109,15.900000000001455,23.899999999997817,10.400000000001455,15.899999999997817,16.600000000000364,16.50000000000182,17.299999999999272]","12","RDK","59","12704","0.0-0.0-59.0"
"-1","-1","false","a,l","l","200","true","200","1","0","0.5","2","-1","1","600","400","white","gray","3","2","2","18.15454545454552","[15.5,38.80000000000109,11.499999999998181,17.30000000000109,16.5,16.69999999999891,16.80000000000109,15.700000000000728,16.899999999999636,17.399999999999636,16.600000000000364]","11","RDK","60","12923","0.0-0.0-60.0"
"-1","-1","false","a,l","a","200","true","200","1","180","0.5","2","-1","1","600","400","white","gray","3","2","2","18.227272727272727","[17.200000000000728,16.599999999998545,15.800000000001091,36.099999999998545,14.600000000002183,16.799999999999272,16.599999999998545,16.700000000000728,16.799999999999272,16.600000000000364,16.700000000000728]","11","RDK","61","13138","0.0-0.0-61.0"
"-1","-1","false","a,l","a","200","true","200","1","180","0.5","2","-1","1","600","400","white","gray","3","2","2","18.145454545454413","[15.399999999999636,17.399999999999636,15.699999999998909,16.600000000000364,17.700000000000728,37,11.999999999998181,17.700000000002547,15.899999999999636,17.5,16.69999999999891]","11","RDK","62","13354","0.0-0.0-62.0"
"-1","-1","false","a,l","a","200","true","200","1","180","0.5","2","-1","1","600","400","white","gray","3","2","2","18.15454545454552","[16.49999999999818,38.30000000000109,10.700000000000728,17.5,16.799999999999272,16.599999999998545,16.400000000001455,16.899999999999636,16.700000000000728,15.899999999999636,17.400000000001455]","11","RDK","63","13572","0.0-0.0-63.0"
"-1","-1","false","a,l","l","200","true","200","1","0","0.5","2","-1","1","600","400","white","gray","3","2","2","16.5","[15.399999999999636,16.899999999999636,16.50000000000182,16.69999999999891,20.799999999999272,12.500000000001819,16.700000000000728,16.799999999999272,16.599999999998545,16.700000000000728,16.600000000000364,15.799999999999272]","12","RDK","64","13790","0.0-0.0-64.0"
"-1","-1","false","a,l","a","200","true","200","1","180","0.5","2","-1","1","600","400","white","gray","3","2","2","16.708333333333332","[17.100000000000364,16.700000000000728,16.700000000000728,16.399999999997817,17,16.600000000000364,28.80000000000109,4.399999999999636,15.799999999999272,17.700000000000728,16.599999999998545,16.700000000000728]","12","RDK","65","14006","0.0-0.0-65.0"
"-1","-1","false","a,l","a","200","true","200","1","180","0.5","2","-1","1","600","400","white","gray","3","2","2","18.136363636363637","[16.099999999998545,42.70000000000073,7.300000000001091,16.700000000000728,16.69999999999891,16.69999999999891,16.700000000000728,16.69999999999891,15.900000000001455,17.5,16.5]","11","RDK","66","14220","0.0-0.0-66.0"
"-1","-1","false","a,l","l","200","true","200","1","0","0.5","2","-1","1","600","400","white","gray","3","2","2","18.15454545454552","[16.100000000000364,16.799999999999272,16.700000000000728,35.600000000000364,14.399999999999636,16.700000000000728,16.600000000000364,16.700000000000728,15.799999999997453,16.600000000000364,17.700000000000728]","11","RDK","67","14437","0.0-0.0-67.0"
"-1","-1","false","a,l","l","200","true","200","1","0","0.5","2","-1","1","600","400","white","gray","3","2","2","16.65000000000009","[16.30000000000109,15.699999999998909,17.200000000000728,17.200000000000728,16.69999999999891,16.600000000000364,27.599999999998545,6.700000000000728,15.700000000000728,15.800000000001091,17.599999999998545,16.700000000000728]","12","RDK","68","14653","0.0-0.0-68.0"
"-1","-1","false","a,l","a","200","true","200","1","180","0.5","2","-1","1","600","400","white","gray","3","2","2","18.154545454545357","[16.399999999997817,37.900000000001455,11.899999999999636,16.80000000000109,16.299999999999272,17.100000000000364,16.5,16.799999999999272,16.700000000000728,15.899999999999636,17.399999999999636]","11","RDK","69","14870","0.0-0.0-69.0"
"-1","-1","false","a,l","a","200","true","200","1","180","0.5","2","-1","1","600","400","white","gray","3","2","2","16.633333333333365","[16.200000000002547,16.600000000000364,16.599999999998545,16.799999999999272,23.00000000000182,10,16.99999999999818,16.700000000000728,16.600000000000364,16.700000000000728,16.69999999999891,16.69999999999891]","12","RDK","70","15087","0.0-0.0-70.0"
"-1","-1","false","a,l","l","200","true","200","1","0","0.5","2","-1","1","600","400","white","gray","3","2","2","16.709090909090843","[17.099999999998545,15.700000000000728,17.69999999999891,16,17.100000000000364,16.799999999999272,30.399999999999636,2.600000000002183,16.99999999999818,16.700000000000728,16.700000000000728]","11","RDK","71","15304","0.0-0.0-71.0"
"-1","-1","false","a,l","a","200","true","200","1","180","0.5","2","-1","1","600","400","white","gray","3","2","2","19.649999999999817","[12.799999999999272,16.799999999999272,54.20000000000073,11.700000000000728,17.600000000000364,16.600000000000364,16.69999999999891,16.599999999998545,16.400000000001455,17.099999999998545]","10","RDK","72","15507","0.0-0.0-72.0"
"-1","-1","false","a,l","a","200","true","200","1","180","0.5","2","-1","1","600","400","white","gray","3","2","2","26.22857142857148","[16.899999999999636,16.600000000000364,16.700000000000728,16.700000000000728,89.49999999999818,10.5,16.700000000000728]","7","RDK","73","15720","0.0-0.0-73.0"
"-1","-1","false","a,l","a","200","true","200","1","180","0.5","2","-1","1","600","400","white","gray","3","2","2","17.91818181818185","[14.5,16.5,15.799999999999272,17.600000000000364,40.099999999998545,9.900000000003274,15.899999999997817,17.50000000000182,16.700000000000728,16.600000000000364,15.999999999998181]","11","RDK","74","15923","0.0-0.0-74.0"
"-1","-1","false","a,l","a","200","true","200","1","180","0.5","2","-1","1","600","400","white","gray","3","2","2","15.633333333333363","[5,16.69999999999891,15.80000000000291,17.49999999999818,16.600000000000364,16.700000000000728,16.600000000000364,25.899999999999636,7.5,16.50000000000182,16.799999999999272,15.999999999998181]","12","RDK","75","16149","0.0-0.0-75.0"
"-1","-1","false","a,l","l","200","true","200","1","0","0.5","2","-1","1","600","400","white","gray","3","2","2","18.163636363636297","[16.400000000001455,16.599999999996726,35.00000000000182,14.200000000000728,17.599999999998545,16.599999999998545,16.700000000000728,16.700000000000728,16.700000000000728,16.700000000000728,16.599999999998545]","11","RDK","76","16354","0.0-0.0-76.0"
"-1","-1","false","a,l","l","200","true","200","1","0","0.5","2","-1","1","600","400","white","gray","3","2","2","18.06363636363643","[16.200000000000728,16.599999999998545,16.700000000000728,34.20000000000073,15.799999999999272,16.5,16.899999999997817,16.700000000000728,16.600000000002183,16.69999999999709,15.80000000000291]","11","RDK","77","16571","0.0-0.0-77.0"
"-1","-1","false","a,l","a","200","true","200","1","180","0.5","2","-1","1","600","400","white","gray","3","2","2","16.649999999999938","[16.200000000000728,16.899999999997817,16.600000000002183,16.700000000000728,15.999999999996362,16.700000000000728,29.600000000002183,4.299999999999272,29.600000000002183,3.2999999999992724,16.299999999999272,17.599999999998545]","12","RDK","78","16790","0.0-0.0-78.0"
"-1","-1","false","a,l","l","200","true","200","1","0","0.5","2","-1","1","600","400","white","gray","3","2","2","18.28181818181805","[15.5,16.599999999998545,16.700000000000728,32.599999999998545,17.100000000002183,17,16.600000000002183,16.69999999999709,16.700000000000728,16.700000000000728,18.899999999997817]","11","RDK","79","17007","0.0-0.0-79.0"
"-1","-1","false","a,l","a","200","true","200","1","180","0.5","2","-1","1","600","400","white","gray","3","2","2","16.658333333333456","[16.499999999996362,16.600000000002183,16.700000000000728,16.69999999999709,16.700000000000728,16.600000000002183,21.5,11.400000000001455,17.19999999999709,15.700000000000728,17.600000000002183,16.700000000000728]","12","RDK","80","17221","0.0-0.0-80.0"
"-1","-1","false","a,l","l","200","true","200","1","0","0.5","2","-1","1","600","400","white","gray","3","2","2","18.163636363636297","[16.099999999998545,37.10000000000218,12.69999999999709,17.200000000000728,16.599999999998545,16.80000000000291,16.599999999998545,16.700000000000728,16.700000000000728,16.599999999998545,16.700000000000728]","11","RDK","81","17438","0.0-0.0-81.0"
"-1","-1","false","a,l","l","200","true","200","1","0","0.5","2","-1","1","600","400","white","gray","3","2","2","16.65454545454519","[16.400000000001455,16.69999999999709,16.600000000002183,22.299999999995634,11.100000000002183,21.5,11.899999999997817,16.600000000002183,16.700000000000728,16.69999999999709,16.700000000000728]","11","RDK","82","17654","0.0-0.0-82.0"
"-1","-1","false","a,l","a","200","true","200","1","180","0.5","2","-1","1","600","400","white","gray","3","2","2","16.5","[14.600000000002183,16.599999999998545,16.799999999999272,16.700000000000728,16.700000000000728,16.600000000002183,16.599999999998545,20.5,12.299999999999272,22.299999999999272,11.5,16.799999999999272]","12","RDK","83","17857","0.0-0.0-83.0"
"-1","-1","false","a,l","a","200","true","200","1","180","0.5","2","-1","1","600","400","white","gray","3","2","2","16.649999999999938","[16.299999999999272,16.000000000003638,17.399999999997817,16.600000000002183,19.899999999997817,13.5,16.600000000002183,15.799999999999272,17.700000000000728,16.700000000000728,16.599999999998545,16.69999999999709]","12","RDK","84","18071","0.0-0.0-84.0"
"-1","-1","false","a,l","l","200","true","200","1","0","0.5","2","-1","1","600","400","white","gray","3","2","2","16.641666666666726","[16.299999999995634,16.700000000000728,16.600000000002183,16.799999999999272,16.599999999998545,16.200000000004366,28.69999999999709,4.299999999999272,17.000000000003638,17.099999999998545,16.700000000000728,16.700000000000728]","12","RDK","85","18288","0.0-0.0-85.0"
"-1","-1","false","a,l","l","200","true","200","1","0","0.5","2","-1","1","600","400","white","gray","3","2","2","18.145454545454744","[16,39.5,10.599999999998545,16.700000000000728,16.700000000000728,16.700000000000728,16.100000000002183,17.19999999999709,16.700000000000728,16.599999999998545,16.80000000000291]","11","RDK","86","18504","0.0-0.0-86.0"
"-1","-1","false","a,l","a","200","true","200","1","180","0.5","2","-1","1","600","400","white","gray","3","2","2","18.054545454545323","[15.299999999999272,16.599999999998545,16.80000000000291,35.799999999995634,14.099999999998545,16.700000000000728,16.700000000000728,16.700000000000728,15.599999999998545,17.700000000000728,16.600000000002183]","11","RDK","87","18732","0.0-0.0-87.0"
"-1","-1","false","a,l","a","200","true","200","1","180","0.5","2","-1","1","600","400","white","gray","3","2","2","18.3","[15.599999999998545,16.599999999998545,17.600000000002183,16.600000000002183,15.999999999996362,37.50000000000364,13.099999999994907,16.80000000000291,16.700000000000728,16.5]","10","RDK","88","18938","0.0-0.0-88.0"
"-1","-1","false","a,l","a","200","true","200","1","180","0.5","2","-1","1","600","400","white","gray","3","2","2","17.918181818181687","[13.599999999998545,16.900000000001455,37.599999999998545,12.299999999999272,16.700000000000728,16.700000000000728,16.700000000000728,16.700000000000728,16.599999999998545,16.700000000000728,16.599999999998545]","11","RDK","89","19142","0.0-0.0-89.0"
"-1","-1","false","a,l","l","200","true","200","1","0","0.5","2","-1","1","600","400","white","gray","3","2","2","16.649999999999938","[16.299999999995634,16.700000000000728,16.799999999999272,16.600000000002183,16.099999999998545,27.400000000001455,6.399999999997817,16.700000000000728,16.799999999999272,16.700000000000728,15.799999999999272,17.500000000003638]","12","RDK","90","19355","0.0-0.0-90.0"
"-1","-1","false","a,l","l","200","true","200","1","0","0.5","2","-1","1","600","400","white","gray","3","2","2","15.920000000000437","[7.900000000005093,17.799999999995634,16.700000000000728,16.700000000000728,16.700000000000728,16.599999999998545,16.799999999999272,16.600000000002183,16.700000000000728,16.700000000000728]","10","RDK","91","19572","0.0-0.0-91.0"
"-1","-1","false","a,l","l","200","true","200","1","0","0.5","2","-1","1","600","400","white","gray","3","2","2","16.65454545454519","[16.400000000001455,16.799999999999272,27.799999999999272,4.599999999998545,29.599999999998545,3.900000000001455,16.5,17.400000000001455,16.899999999997817,16.600000000002183,16.69999999999709]","11","RDK","92","19788","0.0-0.0-92.0"
"-1","-1","false","a,l","a","200","true","200","1","180","0.5","2","-1","1","600","400","white","gray","3","2","2","16.408333333333456","[14.5,16.600000000002183,16.799999999999272,16.599999999998545,16.5,16.700000000000728,16.80000000000291,20.299999999995634,12.700000000000728,17,16.700000000000728,15.700000000000728]","12","RDK","93","19991","0.0-0.0-93.0"
"-1","-1","false","a,l","a","200","true","200","1","180","0.5","2","-1","1","600","400","white","gray","3","2","2","18.15454545454552","[16.200000000000728,16.799999999999272,34.400000000001455,15.599999999998545,16.700000000000728,16.799999999999272,16.600000000002183,16.600000000002183,16.799999999999272,16.599999999994907,16.600000000002183]","11","RDK","94","20205","0.0-0.0-94.0"
"-1","-1","false","a,l","l","200","true","200","1","0","0.5","2","-1","1","600","400","white","gray","3","2","2","16.583333333333332","[15.499999999996362,16.80000000000291,16.599999999998545,16.700000000000728,16.599999999998545,23.400000000001455,9.799999999999272,16.700000000000728,16.799999999999272,16.700000000000728,16.700000000000728,16.700000000000728]","12","RDK","95","20424","0.0-0.0-95.0"
"-1","-1","false","a,l","a","200","true","200","1","180","0.5","2","-1","1","600","400","white","gray","3","2","2","19.050000000000363","[7.30000000000291,16.599999999994907,16.600000000002183,16.599999999998545,16.700000000000728,16.700000000000728,16.30000000000291,50.29999999999927,16.5,16.900000000001455]","10","RDK","96","20665","0.0-0.0-96.0"
"-1","-1","false","a,l","l","200","true","200","1","0","0.5","2","-1","1","600","400","white","gray","3","2","2","16.645454545454413","[16.5,16.700000000000728,16.499999999996362,31.000000000003638,1.7000000000007276,16.899999999997817,17.099999999998545,16.100000000002183,17.299999999999272,16.700000000000728,16.599999999998545]","11","RDK","97","20871","0.0-0.0-97.0"
"-1","-1","false","a,l","l","200","true","200","1","0","0.5","2","-1","1","600","400","white","gray","3","2","2","17.990909090909224","[14.400000000001455,16.700000000000728,16.599999999998545,16.80000000000291,16.599999999998545,34.29999999999927,15.599999999998545,16.700000000000728,16.799999999999272,16.599999999998545,16.80000000000291]","11","RDK","98","21074","0.0-0.0-98.0"
"-1","-1","false","a,l","a","200","true","200","1","180","0.5","2","-1","1","600","400","white","gray","3","2","2","18.145454545454744","[16.100000000002183,37.099999999998545,12.900000000005093,16.799999999999272,16.700000000000728,16.69999999999709,16.700000000000728,16.600000000002183,16.700000000000728,16.69999999999345,16.600000000002183]","11","RDK","99","21289","0.0-0.0-99.0"
"-1","-1","false","a,l","a","200","true","200","1","180","0.5","2","-1","1","600","400","white","gray","3","2","2","16.633333333333514","[16.099999999998545,16.600000000002183,16.799999999999272,16.700000000000728,22.200000000000728,11.099999999998545,16.600000000002183,16.799999999999272,16.700000000000728,16.599999999998545,15.799999999999272,17.600000000002183]","12","RDK","100","21506","0.0-0.0-100.0"
"-1","-1","false","a,l","l","200","true","200","1","0","0.5","2","-1","1","600","400","white","gray","3","2","2","16.650000000000244","[16.399999999997817,16.600000000002183,16.799999999999272,16.5,16.799999999999272,16.600000000002183,30.299999999999272,2.500000000003638,16.799999999999272,17.099999999998545,16.599999999998545,16.80000000000291]","12","RDK","101","21722","0.0-0.0-101.0"
"-1","-1","false","a,l","l","200","true","200","1","0","0.5","2","-1","1","600","400","white","gray","3","2","2","18.159999999999854","[15.900000000001455,43.19999999999709,6.899999999997817,16.500000000003638,16.799999999999272,16.700000000000728,16.599999999998545,16.000000000003638,16.799999999999272,16.19999999999709]","10","RDK","102","21939","0.0-0.0-102.0"
"-1","-1","false","a,l","a","200","true","200","1","180","0.5","2","-1","1","600","400","white","gray","3","2","2","17.9636363636359","[13.299999999995634,17.500000000003638,15.799999999995634,17.600000000002183,32.79999999999927,16.299999999999272,17.599999999998545,16.600000000002183,16.799999999999272,16.5,16.799999999999272]","11","RDK","103","22142","0.0-0.0-103.0"
"-1","-1","false","a,l","a","200","true","200","1","180","0.5","2","-1","1","600","400","white","gray","3","2","2","18.163636363636297","[36.70000000000073,13,16.700000000000728,16.600000000002183,16.700000000000728,16.599999999998545,16.700000000000728,16.599999999994907,16.80000000000291,16.69999999999709,16.700000000000728]","11","RDK","104","22356","0.0-0.0-104.0"
"-1","-1","false","a,l","l","200","true","200","1","0","0.5","2","-1","1","600","400","white","gray","3","2","2","16.650000000000244","[16.400000000001455,16.599999999998545,24.700000000000728,7.799999999999272,17.5,16.700000000000728,16.700000000000728,16.700000000000728,16.700000000000728,16.599999999998545,15.700000000000728,17.700000000000728]","12","RDK","105","22573","0.0-0.0-105.0"
"-1","-1","false","a,l","l","200","true","200","1","0","0.5","2","-1","1","600","400","white","gray","3","2","2","16.641666666666726","[16.399999999997817,16.599999999998545,16.600000000002183,16.100000000002183,17.399999999997817,21.399999999997817,11.30000000000291,17.200000000000728,15.999999999996362,17.400000000001455,16.600000000002183,16.700000000000728]","12","RDK","106","22789","0.0-0.0-106.0"
"-1","-1","false","a,l","a","200","true","200","1","180","0.5","2","-1","1","600","400","white","gray","3","2","2","18.229999999999926","[48.19999999999709,2.500000000003638,15,17.399999999997817,16.5,16.799999999999272,16.700000000000728,16.600000000002183,16.700000000000728,15.899999999997817]","10","RDK","107","23006","0.0-0.0-107.0"
"-1","-1","false","a,l","l","200","true","200","1","0","0.5","2","-1","1","600","400","white","gray","3","2","2","16.416666666666362","[13.599999999998545,16.700000000000728,16.700000000000728,16.599999999998545,27.099999999998545,10.200000000000728,11.900000000001455,17.399999999997817,16.799999999999272,15.900000000001455,17.400000000001455,16.69999999999709]","12","RDK","108","23209","0.0-0.0-108.0"
"-1","-1","false","a,l","l","200","true","200","1","0","0.5","2","-1","1","600","400","white","gray","3","2","2","16.625","[16.100000000002183,16.700000000000728,16.69999999999709,16.700000000000728,16.600000000002183,16.700000000000728,23.19999999999709,10.100000000002183,16.599999999998545,16.69999999999709,16.80000000000291,16.599999999998545]","12","RDK","109","23425","0.0-0.0-109.0"
"-1","-1","false","a,l","l","200","true","200","1","0","0.5","2","-1","1","600","400","white","gray","3","2","2","16.524999999999938","[14.799999999999272,16.700000000000728,30.700000000000728,2.2000000000007276,17.099999999998545,16.799999999999272,16,17.400000000001455,16.700000000000728,16.700000000000728,17.599999999998545,15.599999999998545]","12","RDK","110","23641","0.0-0.0-110.0"
"-1","-1","false","a,l","a","200","true","200","1","180","0.5","2","-1","1","600","400","white","gray","3","2","2","18.136363636363637","[16.099999999994907,16.700000000000728,15.700000000004366,17.599999999998545,37.20000000000073,12.799999999999272,16.599999999998545,16.799999999999272,16.400000000001455,17,16.600000000002183]","11","RDK","111","23857","0.0-0.0-111.0"
"-1","-1","false","a,l","l","200","true","200","1","0","0.5","2","-1","1","600","400","white","gray","3","2","2","17.289999999999782","[37.799999999995634,2.400000000001455,14.900000000001455,17.799999999995634,16.600000000002183,16.400000000001455,17,16.599999999998545,16.600000000002183,16.799999999999272]","10","RDK","112","24073","0.0-0.0-112.0"
"-1","-1","false","a,l","a","200","true","200","1","180","0.5","2","-1","1","600","400","white","gray","3","2","2","16.491666666666486","[14.599999999998545,16.500000000003638,16.799999999999272,16.599999999998545,26.700000000000728,10.599999999998545,12.700000000000728,16.69999999999709,16.700000000000728,16.700000000000728,16.700000000000728,16.599999999998545]","12","RDK","113","24276","0.0-0.0-113.0"
"-1","-1","false","a,l","l","200","true","200","1","0","0.5","2","-1","1","600","400","white","gray","3","2","2","16.649999999999938","[16.30000000000291,16.599999999998545,16.799999999999272,16.600000000002183,16.700000000000728,16.799999999999272,28.099999999998545,4.599999999998545,21.000000000003638,12.899999999997817,16.599999999998545,16.799999999999272]","12","RDK","114","24490","0.0-0.0-114.0"
"-1","-1","false","a,l","a","200","true","200","1","180","0.5","2","-1","1","600","400","white","gray","3","2","2","16.658333333333456","[16.299999999999272,16.80000000000291,16.5,20.399999999997817,13,16.700000000000728,16.799999999999272,16.600000000002183,16.700000000000728,16.700000000000728,16.599999999998545,16.799999999999272]","12","RDK","115","24707","0.0-0.0-115.0"
"-1","-1","false","a,l","a","200","true","200","1","180","0.5","2","-1","1","600","400","white","gray","3","2","2","18.145454545454413","[15.19999999999709,17.599999999998545,16.700000000000728,16.700000000000728,16.700000000000728,35.39999999999782,13.700000000000728,17.5,16.700000000000728,16.700000000000728,16.700000000000728]","11","RDK","116","24923","0.0-0.0-116.0"
"-1","-1","false","a,l","a","200","true","200","1","180","0.5","2","-1","1","600","400","white","gray","3","2","2","19.940000000000147","[50,16.099999999998545,16.5,16.799999999999272,16.600000000002183,16.700000000000728,16.69999999999709,16.600000000002183,16.799999999999272,16.600000000002183]","10","RDK","117","25142","0.0-0.0-117.0"
"-1","-1","false","a,l","a","200","true","200","1","180","0.5","2","-1","1","600","400","white","gray","3","2","2","16.608333333333576","[15.80000000000291,16.700000000000728,25.899999999997817,7.299999999999272,16.5,17,16.700000000000728,16.700000000000728,16.599999999998545,16.600000000002183,16.799999999999272,16.700000000000728]","12","RDK","118","25359","0.0-0.0-118.0"
"-1","-1","false","a,l","l","200","true","200","1","0","0.5","2","-1","1","600","400","white","gray","3","2","2","24.950000000000273","[16.30000000000291,16.700000000000728,16.69999999999709,16.700000000000728,16.700000000000728,94.59999999999854,4.799999999999272,17.100000000002183]","8","RDK","119","25575","0.0-0.0-119.0"
"-1","-1","false","a,l","a","200","true","200","1","180","0.5","2","-1","1","600","400","white","gray","3","2","2","18.15454545454552","[16.600000000002183,16.700000000000728,16.599999999998545,16.600000000002183,32.89999999999782,17.200000000000728,16.700000000000728,16.599999999998545,16.80000000000291,16.599999999994907,16.400000000001455]","11","RDK","120","25793","0.0-0.0-120.0"
"-1","-1","false","a,l","l","200","true","200","1","0","0.5","2","-1","1","600","400","white","gray","3","2","2","17.93000000000029","[40.00000000000364,6.099999999998545,17.400000000001455,16.599999999998545,16.799999999999272,16.100000000002183,17.200000000000728,16.5,16.799999999999272,15.799999999999272]","10","RDK","121","26007","0.0-0.0-121.0"
"-1","-1","false","a,l","l","200","true","200","1","0","0.5","2","-1","1","600","400","white","gray","3","2","2","16.5","[14.599999999998545,16.69999999999709,16.700000000000728,16.600000000002183,20.5,12,17.5,16.700000000000728,16.700000000000728,16.69999999999709,16.600000000002183,16.700000000000728]","12","RDK","122","26210","0.0-0.0-122.0"
"-1","-1","false","a,l","a","200","true","200","1","180","0.5","2","-1","1","600","400","white","gray","3","2","2","18.15454545454552","[16.200000000000728,16.700000000000728,16.700000000000728,16.700000000000728,16.69999999999345,36.10000000000218,13.700000000000728,16.799999999999272,16.700000000000728,16.600000000002183,16.799999999999272]","11","RDK","123","26424","0.0-0.0-123.0"
"-1","-1","false","a,l","l","200","true","200","1","0","0.5","2","-1","1","600","400","white","gray","3","2","2","19.959999999999855","[16.200000000000728,49.20000000000073,16.69999999999709,17.500000000003638,16.599999999994907,16.700000000000728,16.80000000000291,16.5,16.700000000000728,16.69999999999709]","10","RDK","124","26640","0.0-0.0-124.0"
"-1","-1","false","a,l","a","200","true","200","1","180","0.5","2","-1","1","600","400","white","gray","3","2","2","16.475000000000062","[15.19999999999709,16.500000000003638,15.899999999997817,17.400000000001455,16.599999999998545,16.200000000000728,17.200000000000728,15.799999999999272,17.600000000002183,16.700000000000728,16.499999999996362,16.100000000002183]","12","RDK","125","26857","0.0-0.0-125.0"
"-1","-1","false","a,l","l","200","true","200","1","0","0.5","2","-1","1","600","400","white","gray","3","2","2","16.649999999999938","[16.19999999999709,16.900000000001455,16.599999999998545,16.700000000000728,16.700000000000728,16.599999999998545,29.799999999999272,3.400000000001455,16,17.5,16.700000000000728,16.700000000000728]","12","RDK","126","27074","0.0-0.0-126.0"
"-1","-1","false","a,l","a","200","true","200","1","180","0.5","2","-1","1","600","400","white","gray","3","2","2","18.15454545454552","[16.299999999995634,41.50000000000364,8.5,16.599999999998545,16.700000000000728,16.799999999999272,16.600000000002183,16.69999999999709,16.700000000000728,16.700000000000728,16.600000000002183]","11","RDK","127","27291","0.0-0.0-127.0"
"-1","-1","false","a,l","a","200","true","200","1","180","0.5","2","-1","1","600","400","white","gray","3","2","2","18.390000000000146","[17.100000000002183,16.700000000000728,16.69999999999709,35.79999999999927,14.100000000002183,16.69999999999709,16.80000000000291,16.599999999998545,16.700000000000728,16.700000000000728]","10","RDK","128","27507","0.0-0.0-128.0"
"-1","-1","false","a,l","l","200","true","200","1","0","0.5","2","-1","1","600","400","white","gray","3","2","2","16.508333333333212","[14.700000000000728,16.700000000000728,16.700000000000728,16.599999999998545,15.599999999998545,17.80000000000291,16.599999999998545,23.400000000001455,9.899999999997817,16.700000000000728,16.700000000000728,16.69999999999709]","12","RDK","129","27712","0.0-0.0-129.0"
"-1","-1","false","a,l","a","200","true","200","1","180","0.5","2","-1","1","600","400","white","gray","3","2","2","18.145454545454413","[16,16.900000000001455,38.099999999998545,11.099999999998545,17.500000000003638,16.299999999999272,17,16.600000000002183,16.69999999999709,16.700000000000728,16.69999999999709]","11","RDK","130","27925","0.0-0.0-130.0"
"-1","-1","false","a,l","l","200","true","200","1","0","0.5","2","-1","1","600","400","white","gray","3","2","2","16.616666666666486","[16.299999999999272,16.599999999998545,16.799999999999272,16.600000000002183,16.599999999998545,25,7.700000000000728,17.400000000001455,16.700000000000728,16.599999999998545,16.80000000000291,16.299999999995634]","12","RDK","131","28143","0.0-0.0-131.0"
"-1","-1","false","a,l","a","200","true","200","1","180","0.5","2","-1","1","600","400","white","gray","3","2","2","18.172727272727073","[16.299999999995634,35.50000000000364,14.599999999998545,16.69999999999709,16.700000000000728,16.700000000000728,16.700000000000728,16.599999999998545,16.700000000000728,16.700000000000728,16.700000000000728]","11","RDK","132","28358","0.0-0.0-132.0"
"-1","-1","false","a,l","l","200","true","200","1","0","0.5","2","-1","1","600","400","white","gray","3","2","2","18.109090909090977","[15.799999999999272,16.700000000000728,37.79999999999927,11.200000000000728,17.599999999998545,16.700000000000728,16.599999999998545,16.700000000000728,16.700000000000728,16.700000000000728,16.700000000000728]","11","RDK","133","28574","0.0-0.0-133.0"
"-1","-1","false","a,l","a","200","true","200","1","180","0.5","2","-1","1","600","400","white","gray","3","2","2","16.699999999999736","[16.299999999999272,17.30000000000291,16.799999999999272,16.599999999998545,16.700000000000728,29.200000000000728,3.999999999996362,15.900000000001455,17.5,16.700000000000728,16.69999999999709]","11","RDK","134","28791","0.0-0.0-134.0"
"-1","-1","false","a,l","a","200","true","200","1","180","0.5","2","-1","1","600","400","white","gray","3","2","2","17.93636363636324","[13.999999999996362,16.100000000002183,39.900000000001455,10.400000000001455,16.299999999995634,17.200000000004366,16.599999999998545,16.799999999999272,16.599999999998545,16.200000000000728,17.19999999999709]","11","RDK","135","28996","0.0-0.0-135.0"
"-1","-1","false","a,l","l","200","true","200","1","0","0.5","2","-1","1","600","400","white","gray","3","2","2","16.65454545454552","[16.599999999998545,16.600000000002183,16.69999999999709,16.700000000000728,30.600000000002183,2.5,16.099999999998545,17.400000000001455,16.700000000000728,16.599999999998545,16.700000000000728]","11","RDK","136","29208","0.0-0.0-136.0"
"-1","-1","false","a,l","l","200","true","200","1","0","0.5","2","-1","1","600","400","white","gray","3","2","2","17.990909090909224","[14.5,48,2.400000000001455,16.200000000000728,16.69999999999709,16.700000000000728,16.700000000000728,16.700000000000728,16.600000000002183,19.799999999999272,13.599999999998545]","11","RDK","137","29412","0.0-0.0-137.0"
"-1","-1","false","a,l","l","200","true","200","1","0","0.5","2","-1","1","600","400","white","gray","3","2","2","16.75454545454539","[17.500000000003638,16.799999999999272,16.499999999996362,16.799999999999272,16.600000000002183,27.900000000001455,5.399999999997817,16.599999999998545,16.80000000000291,16.700000000000728,16.69999999999709]","11","RDK","138","29624","0.0-0.0-138.0"
"-1","-1","false","a,l","a","200","true","200","1","180","0.5","2","-1","1","600","400","white","gray","3","2","2","16.5","[14.600000000002183,16.700000000000728,16.69999999999709,16.600000000002183,16.700000000000728,16.700000000000728,16.499999999996362,30.099999999998545,2.8000000000029104,16.299999999999272,17.599999999998545,16.700000000000728]","12","RDK","139","29829","0.0-0.0-139.0"
"-1","-1","false","a,l","a","200","true","200","1","180","0.5","2","-1","1","600","400","white","gray","3","2","2","18.109090909090977","[16.30000000000291,16.599999999998545,16.5,35.70000000000073,14.30000000000291,16.799999999999272,16.700000000000728,16.799999999999272,16.599999999998545,16.69999999999709,16.200000000000728]","11","RDK","140","30046","0.0-0.0-140.0"
"-1","-1","false","a,l","l","200","true","200","1","0","0.5","2","-1","1","600","400","white","gray","3","2","2","16.545454545454877","[14.900000000001455,17,16.599999999998545,16.80000000000291,16.69999999999709,16.600000000002183,23.599999999998545,8.799999999999272,17.700000000000728,16.600000000002183,16.700000000000728]","11","RDK","141","30259","0.0-0.0-141.0"
"-1","-1","false","a,l","a","200","true","200","1","180","0.5","2","-1","1","600","400","white","gray","3","2","2","19.790909090909157","[10.399999999997817,15.400000000001455,58.79999999999927,8.899999999997817,16.500000000003638,16.599999999998545,16.900000000001455,16.5,16.200000000000728,17.19999999999709,24.30000000000291]","11","RDK","142","30484","0.0-0.0-142.0"
"-1","-1","false","a,l","a","200","true","200","1","180","0.5","2","-1","1","600","400","white","gray","3","2","2","16.558333333333092","[15.399999999997817,16.600000000002183,16.599999999998545,16.599999999998545,16.799999999999272,16.700000000000728,31.700000000000728,1.2000000000007276,16.400000000001455,17.499999999996362,16.5,16.700000000000728]","12","RDK","143","30696","0.0-0.0-143.0"
"-1","-1","false","a,l","l","200","true","200","1","0","0.5","2","-1","1","600","400","white","gray","3","2","2","18.31000000000022","[16.400000000001455,32.5,17,16.700000000000728,17.19999999999709,16.799999999999272,16.700000000000728,15.80000000000291,16.5,17.5]","10","RDK","144","30909","0.0-0.0-144.0"
"-1","-1","false","a,l","a","200","true","200","1","180","0.5","2","-1","1","600","400","white","gray","3","2","2","17.918181818181687","[13.700000000000728,16.599999999998545,16.799999999999272,16.600000000002183,35.099999999998545,14.900000000001455,16.700000000000728,16.599999999998545,16.80000000000291,16.69999999999709,16.599999999998545]","11","RDK","145","31111","0.0-0.0-145.0"
"-1","-1","false","a,l","l","200","true","200","1","0","0.5","2","-1","1","600","400","white","gray","3","2","2","18.740000000000144","[37.900000000001455,15.5,17.19999999999709,16.700000000000728,16.700000000000728,16.600000000002183,15.899999999997817,17.5,16.700000000000728,16.700000000000728]","10","RDK","146","31325","0.0-0.0-146.0"
"-1","-1","false","a,l","a","200","true","200","1","180","0.5","2","-1","1","600","400","white","gray","3","2","2","16.658333333333456","[16.299999999999272,16.899999999997817,27.200000000000728,5.000000000003638,16.799999999999272,17.599999999998545,16.700000000000728,16.599999999998545,16.799999999999272,16.500000000003638,16.69999999999709,16.80000000000291]","12","RDK","147","31542","0.0-0.0-147.0"
"-1","-1","false","a,l","l","200","true","200","1","0","0.5","2","-1","1","600","400","white","gray","3","2","2","16.57500000000012","[15.600000000002183,16.700000000000728,16.600000000002183,16.599999999994907,16.700000000000728,23.100000000002183,10.19999999999709,16.600000000002183,15.799999999999272,17.600000000002183,16.399999999997817,17]","12","RDK","148","31759","0.0-0.0-148.0"
"-1","-1","false","a,l","l","200","true","200","1","0","0.5","2","-1","1","600","400","white","gray","3","2","2","16.624999999999698","[16.30000000000291,31.399999999997817,2.7000000000007276,15.30000000000291,17.299999999999272,16.700000000000728,16.69999999999709,16.700000000000728,16.599999999998545,16.80000000000291,16.5,16.499999999992724]","12","RDK","149","31982","0.0-0.0-149.0"
"-1","-1","false","a,l","a","200","true","200","1","180","0.5","2","-1","1","600","400","white","gray","3","2","2","18.350000000000364","[16.80000000000655,16.599999999994907,16.799999999995634,16.60000000000582,34.99999999999636,14.900000000005093,16.700000000000728,16.799999999995634,16.600000000002183,16.700000000000728]","10","RDK","150","32193","0.0-0.0-150.0"
"-1","-1","false","a,l","l","200","true","200","1","0","0.5","2","-1","1","600","400","white","gray","3","2","2","17.881818181817916","[13.39999999999418,43.30000000000291,6.599999999998545,16.799999999995634,16.700000000000728,16.700000000000728,16.700000000000728,16.60000000000582,16.69999999999709,15.600000000002183,17.599999999998545]","11","RDK","151","32396","0.0-0.0-151.0"
"-1","-1","false","a,l","l","200","true","200","1","0","0.5","2","-1","1","600","400","white","gray","3","2","2","18.163636363635966","[16.39999999999418,15.799999999999272,17.500000000007276,17.599999999994907,35.700000000004366,13.399999999997817,16.700000000000728,16.69999999999709,16.700000000000728,16.599999999998545,16.700000000000728]","11","RDK","152","32609","0.0-0.0-152.0"
"-1","-1","false","a,l","a","200","true","200","1","180","0.5","2","-1","1","600","400","white","gray","3","2","2","16.64166666666703","[16.400000000001455,16.599999999998545,16.700000000004366,16.69999999999709,16.599999999998545,16.60000000000582,25,7.799999999995634,20.099999999998545,13.900000000001455,16.599999999998545,16.700000000004366]","12","RDK","153","32826","0.0-0.0-153.0"
"-1","-1","false","a,l","a","200","true","200","1","180","0.5","2","-1","1","600","400","white","gray","3","2","2","16.725000000000364","[16.700000000004366,17.200000000004366,16.69999999999709,20.099999999998545,12.599999999998545,17.400000000001455,16.799999999995634,16.60000000000582,16.700000000004366,16.69999999999709,16.599999999998545,16.599999999998545]","12","RDK","154","33042","0.0-0.0-154.0"
"-1","-1","false","a,l","l","200","true","200","1","0","0.5","2","-1","1","600","400","white","gray","3","2","2","16.709090909091834","[17.099999999998545,16.700000000004366,16.69999999999709,16.60000000000582,15.700000000004366,29.799999999995634,4.400000000001455,16.599999999998545,16.80000000000291,16.69999999999709,16.700000000004366]","11","RDK","155","33259","0.0-0.0-155.0"
"-1","-1","false","a,l","a","200","true","200","1","180","0.5","2","-1","1","600","400","white","gray","3","2","2","17.96363636363623","[13.900000000001455,40.799999999995634,8.400000000001455,17.5,16.60000000000582,16.69999999999709,16.799999999995634,16.69999999999709,16.60000000000582,29.19999999999709,4.400000000001455]","11","RDK","156","33471","0.0-0.0-156.0"
"-1","-1","false","a,l","l","200","true","200","1","0","0.5","2","-1","1","600","400","white","gray","3","2","2","18.33000000000029","[16.69999999999709,16.700000000004366,16.5,17.19999999999709,36.000000000007276,13.499999999992724,16.80000000000291,16.69999999999709,16.599999999998545,16.60000000000582]","10","RDK","157","33676","0.0-0.0-157.0"
"-1","-1","false","a,l","l","200","true","200","1","0","0.5","2","-1","1","600","400","white","gray","3","2","2","16.341666666666544","[13.69999999999709,16.60000000000582,16.69999999999709,15.69999999999709,17.700000000004366,16.599999999998545,16.69999999999709,23.000000000007276,10.19999999999709,16.80000000000291,16.599999999998545,15.799999999995634]","12","RDK","158","33879","0.0-0.0-158.0"
"-1","-1","false","a,l","a","200","true","200","1","180","0.5","2","-1","1","600","400","white","gray","3","2","2","16.624999999999392","[16.19999999999709,16.799999999995634,16.000000000007276,26.999999999992724,6.80000000000291,16.900000000001455,16.69999999999709,16.799999999995634,16.200000000004366,17.10000000000582,16.59999999999127,16.400000000001455]","12","RDK","159","34093","0.0-0.0-159.0"
"-1","-1","false","a,l","a","200","true","200","1","180","0.5","2","-1","1","600","400","white","gray","3","2","2","18.145454545453752","[16.09999999999127,16.60000000000582,16.799999999995634,16.69999999999709,16.700000000004366,35.19999999999709,13.80000000000291,17.599999999998545,16.69999999999709,16.700000000004366,16.69999999999709]","11","RDK","160","34310","0.0-0.0-160.0"
"-1","-1","false","a,l","l","200","true","200","1","0","0.5","2","-1","1","600","400","white","gray","3","2","2","18.163636363636627","[48.30000000000291,2.3000000000029104,15.699999999989814,16.10000000000582,17.400000000001455,16.599999999998545,16.80000000000291,15.499999999992724,17.700000000004366,16.799999999995634,16.60000000000582]","11","RDK","161","34527","0.0-0.0-161.0"
"-1","-1","false","a,l","l","200","true","200","1","0","0.5","2","-1","1","600","400","white","gray","3","2","2","16.641666666666424","[16.39999999999418,16.700000000004366,15.69999999999709,29.30000000000291,10.30000000000291,11.299999999995634,16.69999999999709,16.700000000004366,16.30000000000291,17.099999999998545,16.69999999999709,16.5]","12","RDK","162","34748","0.0-0.0-162.0"
"-1","-1","false","a,l","l","200","true","200","1","0","0.5","2","-1","1","600","400","white","gray","3","2","2","18.389999999999418","[17.19999999999709,16.599999999998545,16.700000000004366,16.69999999999709,16.700000000004366,43.599999999998545,6.19999999999709,16.69999999999709,16.80000000000291,16.69999999999709]","10","RDK","163","34959","0.0-0.0-163.0"
"-1","-1","false","a,l","a","200","true","200","1","180","0.5","2","-1","1","600","400","white","gray","3","2","2","17.927272727273124","[13.900000000001455,16.599999999998545,45.5,4.5,16.700000000004366,16.799999999995634,16.60000000000582,16.599999999998545,15.999999999992724,17.400000000001455,16.60000000000582]","11","RDK","164","35164","0.0-0.0-164.0"
"-1","-1","false","a,l","a","200","true","200","1","180","0.5","2","-1","1","600","400","white","gray","3","2","2","22.912499999999454","[15.69999999999709,16.80000000000291,17.39999999999418,16.69999999999709,16.60000000000582,71.09999999999854,11.80000000000291,17.19999999999709]","8","RDK","165","35377","0.0-0.0-165.0"
"-1","-1","false","a,l","l","200","true","200","1","0","0.5","2","-1","1","600","400","white","gray","3","2","2","17.96363636363623","[14.10000000000582,47.799999999995634,2.7000000000043656,16.09999999999127,16.40000000000873,17.099999999998545,16.599999999998545,16.69999999999709,16.60000000000582,20.599999999998545,12.89999999999418]","11","RDK","166","35581","0.0-0.0-166.0"
"-1","-1","false","a,l","l","200","true","200","1","0","0.5","2","-1","1","600","400","white","gray","3","2","2","16.633333333333212","[16.19999999999709,16.69999999999709,16.700000000004366,15.69999999999709,17.60000000000582,28.499999999992724,4.80000000000291,16.599999999998545,16.80000000000291,16.799999999995634,16.60000000000582,16.599999999998545]","12","RDK","167","35796","0.0-0.0-167.0"
"-1","-1","false","a,l","l","200","true","200","1","0","0.5","2","-1","1","600","400","white","gray","3","2","2","16.46363636363623","[27.89999999999418,2.7000000000043656,16.299999999995634,17.60000000000582,16.5,16.80000000000291,16.599999999998545,16.80000000000291,16.5,16.59999999999127,16.80000000000291]","11","RDK","168","36010","0.0-0.0-168.0"
"-1","-1","false","a,l","a","200","true","200","1","180","0.5","2","-1","1","600","400","white","gray","3","2","2","16.49166666666618","[14.599999999991269,16.700000000004366,16.60000000000582,29.69999999999709,3.5,16.599999999998545,16.900000000001455,16.69999999999709,16.69999999999709,16.60000000000582,16.700000000004366,16.59999999999127]","12","RDK","169","36214","0.0-0.0-169.0"
"-1","-1","false","a,l","a","200","true","200","1","180","0.5","2","-1","1","600","400","white","gray","3","2","2","16.63333333333382","[16.30000000000291,16.599999999998545,16.80000000000291,16.69999999999709,16.599999999998545,16.60000000000582,22.999999999992724,10.30000000000291,16.80000000000291,16.5,16.799999999995634,16.60000000000582]","12","RDK","170","36429","0.0-0.0-170.0"
"-1","-1","false","a,l","a","200","true","200","1","180","0.5","2","-1","1","600","400","white","gray","3","2","2","18.054545454545323","[14.89999999999418,36.299999999995634,14.10000000000582,16.599999999998545,16.69999999999709,16.700000000004366,16.69999999999709,16.700000000004366,21.19999999999709,12,16.700000000004366]","11","RDK","171","36647","0.0-0.0-171.0"
"-1","-1","false","a,l","a","200","true","200","1","180","0.5","2","-1","1","600","400","white","gray","3","2","2","16.65454545454585","[16.400000000001455,16.80000000000291,16.599999999998545,25.39999999999418,8.300000000010186,24.89999999999418,8.10000000000582,16.499999999992724,16.80000000000291,16.69999999999709,16.700000000004366]","11","RDK","172","36860","0.0-0.0-172.0"
"-1","-1","false","a,l","l","200","true","200","1","0","0.5","2","-1","1","600","400","white","gray","3","2","2","16.350000000000364","[13.900000000001455,16.000000000007276,17.39999999999418,16.69999999999709,16.700000000004366,15.999999999992724,16.40000000000873,22.30000000000291,12,24.299999999995634,8.89999999999418,15.60000000000582]","12","RDK","173","37063","0.0-0.0-173.0"
"-1","-1","false","a,l","a","200","true","200","1","180","0.5","2","-1","1","600","400","white","gray","3","2","2","16.658333333333456","[16.400000000001455,16.69999999999709,16.799999999995634,16.5,20.60000000000582,12.799999999995634,16.80000000000291,16.599999999998545,16.69999999999709,16.60000000000582,16.700000000004366,16.69999999999709]","12","RDK","174","37277","0.0-0.0-174.0"
"-1","-1","false","a,l","a","200","true","200","1","180","0.5","2","-1","1","600","400","white","gray","3","2","2","16.650000000000848","[16.30000000000291,16.700000000004366,16.69999999999709,15.599999999998545,17.69999999999709,16.700000000004366,30.10000000000582,2.6999999999970896,16.5,17.400000000001455,16.69999999999709,16.700000000004366]","12","RDK","175","37496","0.0-0.0-175.0"
"-1","-1","false","a,l","l","200","true","200","1","0","0.5","2","-1","1","600","400","white","gray","3","2","2","18.145454545453752","[16.099999999998545,40.599999999998545,9.400000000001455,25.89999999999418,6.80000000000291,17.299999999995634,16.80000000000291,16.599999999998545,16.700000000004366,16.69999999999709,16.69999999999709]","11","RDK","176","37711","0.0-0.0-176.0"
"-1","-1","false","a,l","l","200","true","200","1","0","0.5","2","-1","1","600","400","white","gray","3","2","2","18.163636363636627","[16.5,16.60000000000582,16.599999999998545,36,13.5,17.19999999999709,16.69999999999709,16.700000000004366,16.69999999999709,16.69999999999709,16.60000000000582]","11","RDK","177","37927","0.0-0.0-177.0"
"-1","-1","false","a,l","a","200","true","200","1","180","0.5","2","-1","1","600","400","white","gray","3","2","2","18.163636363636627","[16.400000000001455,16.5,16.799999999995634,16.700000000004366,16.599999999998545,36.30000000000291,13.5,16.89999999999418,16.700000000004366,16.69999999999709,16.700000000004366]","11","RDK","178","38144","0.0-0.0-178.0"
"-1","-1","false","a,l","l","200","true","200","1","0","0.5","2","-1","1","600","400","white","gray","3","2","2","18.109090909091968","[15.700000000004366,38.099999999998545,11.200000000004366,17.5,16.599999999998545,16.69999999999709,16.69999999999709,16.800000000010186,16.5,16.69999999999709,16.700000000004366]","11","RDK","179","38362","0.0-0.0-179.0"
"-1","-1","false","a,l","l","200","true","200","1","0","0.5","2","-1","1","600","400","white","gray","3","2","2","16.71818181818195","[17.199999999989814,16.5,15.800000000010186,17.59999999999127,25.80000000000291,7,17.099999999998545,16.80000000000291,16.700000000004366,16.69999999999709,16.700000000004366]","11","RDK","180","38579","0.0-0.0-180.0"
"-1","-1","false","a,l","l","200","true","200","1","0","0.5","2","-1","1","600","400","white","gray","3","2","2","16.35833333333297","[12.30000000000291,17.200000000004366,15.699999999989814,17.80000000000291,16.599999999998545,16.69999999999709,16.60000000000582,29.69999999999709,2.5,17.700000000004366,16.799999999995634,16.69999999999709]","12","RDK","181","38782","0.0-0.0-181.0"
"-1","-1","false","a,l","a","200","true","200","1","180","0.5","2","-1","1","600","400","white","gray","3","2","2","18.31999999999971","[16.5,16.5,38.60000000000582,11.5,16.59999999999127,16.700000000004366,16.80000000000291,16.599999999998545,16.80000000000291,16.59999999999127]","10","RDK","182","38994","0.0-0.0-182.0"
"-1","-1","false","a,l","l","200","true","200","1","0","0.5","2","-1","1","600","400","white","gray","3","2","2","17.99999999999934","[14.599999999991269,16.60000000000582,16.69999999999709,16.700000000004366,16.599999999998545,35.599999999998545,14.30000000000291,16.69999999999709,16.69999999999709,16.700000000004366,16.799999999995634]","11","RDK","183","39198","0.0-0.0-183.0"
"-1","-1","false","a,l","a","200","true","200","1","180","0.5","2","-1","1","600","400","white","gray","3","2","2","16.658333333333456","[16.39999999999418,31.30000000000291,2.400000000001455,16.30000000000291,16.69999999999709,16.200000000004366,17.19999999999709,16.700000000004366,16.599999999998545,16.80000000000291,16.59999999999127,16.700000000004366]","12","RDK","184","39411","0.0-0.0-184.0"
"-1","-1","false","a,l","l","200","true","200","1","0","0.5","2","-1","1","600","400","white","gray","3","2","2","18.136363636363637","[16.19999999999709,16.60000000000582,16.69999999999709,34.400000000001455,15.599999999998545,16.69999999999709,16.700000000004366,15.900000000001455,17.499999999992724,16.700000000004366,16.5]","11","RDK","185","39630","0.0-0.0-185.0"
"-1","-1","false","a,l","a","200","true","200","1","180","0.5","2","-1","1","600","400","white","gray","3","2","2","16.633333333332605","[16.099999999998545,16.799999999995634,16.599999999998545,16.80000000000291,16.599999999998545,16.60000000000582,21.299999999995634,11.400000000001455,17.299999999995634,16.700000000004366,16.80000000000291,16.59999999999127]","12","RDK","186","39845","0.0-0.0-186.0"
"-1","-1","false","a,l","l","200","true","200","1","0","0.5","2","-1","1","600","400","white","gray","3","2","2","19.91999999999971","[48.799999999995634,16.900000000001455,16.700000000004366,16.69999999999709,16.69999999999709,16.700000000004366,16.099999999998545,17.19999999999709,16.700000000004366,16.69999999999709]","10","RDK","187","40063","0.0-0.0-187.0"
"-1","-1","false","a,l","a","200","true","200","1","180","0.5","2","-1","1","600","400","white","gray","3","2","2","22.13333333333301","[15.900000000001455,16.599999999998545,80.90000000000146,3.8000000000029104,14.5,17.400000000001455,16.69999999999709,16.69999999999709,16.69999999999709]","9","RDK","188","40278","0.0-0.0-188.0"
"-1","-1","false","a,l","a","200","true","200","1","180","0.5","2","-1","1","600","400","white","gray","3","2","2","17.454545454545453","[28.599999999998545,13.000000000007276,16.999999999992724,16.60000000000582,16.69999999999709,16.700000000004366,16.599999999998545,16.400000000001455,16.999999999992724,16.700000000004366,16.69999999999709]","11","RDK","189","40495","0.0-0.0-189.0"
"-1","-1","false","a,l","l","200","true","200","1","0","0.5","2","-1","1","600","400","white","gray","3","2","2","16.616666666666788","[16.099999999998545,16.599999999998545,26.200000000004366,7.099999999998545,16.599999999998545,16.69999999999709,15.900000000001455,17.60000000000582,16.59999999999127,16.700000000004366,15.700000000004366,17.599999999998545]","12","RDK","190","40712","0.0-0.0-190.0"
"-1","-1","false","a,l","l","200","true","200","1","0","0.5","2","-1","1","600","400","white","gray","3","2","2","16.650000000000848","[16.30000000000291,16.700000000004366,16.69999999999709,16.700000000004366,16.59999999999127,23.200000000004366,9.599999999998545,17.099999999998545,16.900000000001455,16.60000000000582,16.799999999995634,16.60000000000582]","12","RDK","191","40928","0.0-0.0-191.0"
"-1","-1","false","a,l","l","200","true","200","1","0","0.5","2","-1","1","600","400","white","gray","3","2","2","18.172727272726743","[48,2.599999999998545,15.099999999998545,17.500000000007276,16.599999999998545,16.799999999995634,16.599999999998545,16.30000000000291,16.599999999998545,17.099999999998545,16.69999999999709]","11","RDK","192","41146","0.0-0.0-192.0"
"-1","-1","false","a,l","l","200","true","200","1","0","0.5","2","-1","1","600","400","white","gray","3","2","2","16.633333333333212","[16.19999999999709,15.700000000004366,17.5,27.400000000001455,10.19999999999709,12.099999999998545,17.000000000007276,16.69999999999709,16.69999999999709,15.80000000000291,17.5,16.799999999995634]","12","RDK","193","41366","0.0-0.0-193.0"
"-1","-1","false","a,l","l","200","true","200","1","0","0.5","2","-1","1","600","400","white","gray","3","2","2","18.3","[16.30000000000291,16.599999999998545,16.80000000000291,16.599999999998545,16.80000000000291,43.299999999995634,5.799999999995634,16.60000000000582,17.5,16.69999999999709]","10","RDK","194","41578","0.0-0.0-194.0"
"-1","-1","false","a,l","a","200","true","200","1","180","0.5","2","-1","1","600","400","white","gray","3","2","2","17.990909090909224","[14.5,16.10000000000582,47.999999999992724,2.400000000001455,15.900000000001455,17.200000000004366,16.999999999992724,16.69999999999709,16.700000000004366,16.60000000000582,16.799999999995634]","11","RDK","195","41781","0.0-0.0-195.0"
"-1","-1","false","a,l","a","200","true","200","1","180","0.5","2","-1","1","600","400","white","gray","3","2","2","16.641666666666424","[15.900000000001455,16.900000000001455,16.19999999999709,16.400000000001455,17.39999999999418,23.90000000000873,8.89999999999418,17.200000000004366,16.599999999998545,16.80000000000291,16.69999999999709,16.799999999995634]","12","RDK","196","41997","0.0-0.0-196.0"
"-1","-1","false","a,l","a","200","true","200","1","180","0.5","2","-1","1","600","400","white","gray","3","2","2","18.136363636363637","[48.700000000004366,2.400000000001455,14.900000000001455,16.80000000000291,16.699999999989814,16.60000000000582,16.599999999998545,16.599999999998545,16.80000000000291,16.69999999999709,16.69999999999709]","11","RDK","197","42212","0.0-0.0-197.0"
"-1","-1","false","a,l","l","200","true","200","1","0","0.5","2","-1","1","600","400","white","gray","3","2","2","16.650000000000244","[16.5,16.700000000004366,16.5,28,10.599999999998545,11.400000000001455,16.799999999995634,16.700000000004366,16.599999999998545,16.69999999999709,16.69999999999709,16.60000000000582]","12","RDK","198","42431","0.0-0.0-198.0"
"-1","-1","false","a,l","a","200","true","200","1","180","0.5","2","-1","1","600","400","white","gray","3","2","2","18.172727272727403","[16.400000000001455,16.69999999999709,16.700000000004366,16.599999999998545,16.69999999999709,43.80000000000291,6.099999999998545,16.69999999999709,16.800000000010186,16.69999999999709,16.69999999999709]","11","RDK","199","42646","0.0-0.0-199.0"
"-1","-1","false","a,l","l","200","true","200","1","0","0.5","2","-1","1","600","400","white","gray","3","2","2","16.625","[16.19999999999709,31.60000000000582,2.6999999999970896,15.599999999998545,16.5,17,16.700000000004366,16.69999999999709,16.5,16.700000000004366,16.89999999999418,16.400000000001455]","12","RDK","200","42863","0.0-0.0-200.0"
"-1","-1","false","a,l","l","200","true","200","1","0","0.5","2","-1","1","600","400","white","gray","3","2","2","16.574999999999516","[16.19999999999709,16.69999999999709,15.80000000000291,17.499999999992724,21.900000000001455,11.60000000000582,16.5,16.599999999998545,16.89999999999418,16.60000000000582,16.799999999995634,15.80000000000291]","12","RDK","201","43083","0.0-0.0-201.0"
"-1","-1","false","a,l","a","200","true","200","1","180","0.5","2","-1","1","600","400","white","gray","3","2","2","16.609090909090643","[15.000000000007276,17.599999999998545,16.799999999995634,16.599999999998545,16.69999999999709,16.60000000000582,23.69999999999709,9,17.30000000000291,16.80000000000291,16.59999999999127]","11","RDK","202","43295","0.0-0.0-202.0"
"-1","-1","false","a,l","a","200","true","200","1","180","0.5","2","-1","1","600","400","white","gray","3","2","2","17.97272727272701","[14.30000000000291,16.59999999999127,46.400000000001455,3.900000000001455,16.19999999999709,17,16.700000000004366,16.599999999998545,16.69999999999709,15.900000000001455,17.400000000001455]","11","RDK","203","43499","0.0-0.0-203.0"
"-1","-1","false","a,l","a","200","true","200","1","180","0.5","2","-1","1","600","400","white","gray","3","2","2","18.15454545454519","[16.200000000004366,16.599999999998545,16.400000000001455,17.099999999998545,34.80000000000291,15,16.80000000000291,16.69999999999709,16.700000000004366,16.59999999999127,16.799999999995634]","11","RDK","204","43713","0.0-0.0-204.0"
"-1","-1","false","a,l","a","200","true","200","1","180","0.5","2","-1","1","600","400","white","gray","3","2","2","18.172727272727403","[37.200000000004366,12,17.299999999995634,16.60000000000582,16.799999999995634,16.60000000000582,16.69999999999709,16,17.299999999995634,16.700000000004366,16.69999999999709]","11","RDK","205","43929","0.0-0.0-205.0"
"-1","-1","false","a,l","a","200","true","200","1","180","0.5","2","-1","1","600","400","white","gray","3","2","2","16.650000000000244","[16.30000000000291,16.799999999995634,16.60000000000582,16.299999999995634,17.099999999998545,16.700000000004366,16.69999999999709,16.599999999998545,16.69999999999709,16.700000000004366,16.60000000000582,16.69999999999709]","12","RDK","206","44146","0.0-0.0-206.0"
"-1","-1","false","a,l","l","200","true","200","1","0","0.5","2","-1","1","600","400","white","gray","3","2","2","16.649999999999636","[16.30000000000291,16.799999999995634,16.69999999999709,16.69999999999709,16.599999999998545,24.900000000001455,7.700000000004366,16.5,17.599999999998545,16.599999999998545,16.80000000000291,16.599999999998545]","12","RDK","207","44363","0.0-0.0-207.0"
"-1","-1","false","a,l","a","200","true","200","1","180","0.5","2","-1","1","600","400","white","gray","3","2","2","18.163636363635966","[15.900000000001455,35.30000000000291,15.19999999999709,16.700000000004366,16.69999999999709,16.599999999998545,16.69999999999709,16.5,16.80000000000291,16.69999999999709,16.69999999999709]","11","RDK","208","44580","0.0-0.0-208.0"
"-1","-1","false","a,l","l","200","true","200","1","0","0.5","2","-1","1","600","400","white","gray","3","2","2","18.145454545454413","[16.10000000000582,16.69999999999709,37.09999999999127,12.500000000007276,17,16.700000000004366,16.69999999999709,16.700000000004366,16.699999999989814,16.69999999999709,16.700000000004366]","11","RDK","209","44797","0.0-0.0-209.0"
"-1","-1","false","a,l","l","200","true","200","1","0","0.5","2","-1","1","600","400","white","gray","3","2","2","18.06363636363676","[15.400000000001455,16.69999999999709,16.500000000007276,16.799999999995634,16.69999999999709,44.000000000007276,5.099999999998545,17.400000000001455,16.799999999995634,16.60000000000582,16.69999999999709]","11","RDK","210","45013","0.0-0.0-210.0"
"-1","-1","false","a,l","a","200","true","200","1","180","0.5","2","-1","1","600","400","white","gray","3","2","2","24.949999999999818","[15.19999999999709,84.40000000000146,15.69999999999709,16.60000000000582,17.599999999998545,16.599999999998545,16.69999999999709,16.80000000000291]","8","RDK","211","45232","0.0-0.0-211.0"
"-1","-1","false","a,l","l","200","true","200","1","0","0.5","2","-1","1","600","400","white","gray","3","2","2","16.641666666666424","[15.799999999995634,17.099999999998545,16.800000000010186,32.19999999999709,2.3000000000029104,14.599999999998545,17,17.19999999999709,16.700000000004366,16.59999999999127,16.10000000000582,17.299999999995634]","12","RDK","212","45450","0.0-0.0-212.0"
"-1","-1","false","a,l","a","200","true","200","1","180","0.5","2","-1","1","600","400","white","gray","3","2","2","16.645454545455074","[16.400000000001455,16.700000000004366,16.69999999999709,16.700000000004366,16.69999999999709,16.599999999998545,23.80000000000291,8.69999999999709,16.900000000001455,17.299999999995634,16.60000000000582]","11","RDK","213","45663","0.0-0.0-213.0"
"-1","-1","false","a,l","a","200","true","200","1","180","0.5","2","-1","1","600","400","white","gray","3","2","2","18","[14.69999999999709,16.5,33.200000000004366,16.30000000000291,17.19999999999709,16.700000000004366,16.69999999999709,16.700000000004366,16.699999999989814,16.69999999999709,16.60000000000582]","11","RDK","214","45868","0.0-0.0-214.0"
"-1","-1","false","a,l","a","200","true","200","1","180","0.5","2","-1","1","600","400","white","gray","3","2","2","18.309999999999853","[16.400000000001455,16.599999999998545,16.69999999999709,34.700000000004366,15.19999999999709,16.80000000000291,16.700000000004366,16.59999999999127,16.700000000004366,16.69999999999709]","10","RDK","215","46080","0.0-0.0-215.0"
"-1","-1","false","a,l","l","200","true","200","1","0","0.5","2","-1","1","600","400","white","gray","3","2","2","16.508333333333212","[14.599999999991269,16.700000000004366,16.69999999999709,16.60000000000582,16.69999999999709,16.700000000004366,16.599999999998545,24.799999999995634,7.69999999999709,21.600000000013097,12.599999999998545,16.799999999995634]","12","RDK","216","46283","0.0-0.0-216.0"
"-1","-1","false","a,l","l","200","true","200","1","0","0.5","2","-1","1","600","400","white","gray","3","2","2","16.566666666666908","[15.299999999995634,16.80000000000291,15.69999999999709,17.099999999998545,27.599999999998545,6.100000000005821,16.599999999998545,16.80000000000291,16.69999999999709,16.10000000000582,17.39999999999418,16.60000000000582]","12","RDK","217","46497","0.0-0.0-217.0"
"-1","-1","false","a,l","l","200","true","200","1","0","0.5","2","-1","1","600","400","white","gray","3","2","2","18.136363636363637","[16.200000000004366,16.599999999998545,16.700000000004366,16.599999999998545,16.700000000004366,16.799999999995634,35.599999999998545,13.700000000004366,17.19999999999709,16.69999999999709,16.69999999999709]","11","RDK","218","46718","0.0-0.0-218.0"
"-1","-1","false","a,l","l","200","true","200","1","0","0.5","2","-1","1","600","400","white","gray","3","2","2","16.68181818181752","[16.700000000004366,16.69999999999709,30,3.6999999999970896,16.200000000004366,16.799999999995634,16.69999999999709,16.60000000000582,16.400000000001455,16.999999999992724,16.69999999999709]","11","RDK","219","46930","0.0-0.0-219.0"
"-1","-1","false","a,l","l","200","true","200","1","0","0.5","2","-1","1","600","400","white","gray","3","2","2","17.990909090908563","[14.5,16.69999999999709,16.69999999999709,16.599999999998545,34.19999999999709,15.700000000004366,16.80000000000291,16.599999999998545,16.69999999999709,16.700000000004366,16.69999999999709]","11","RDK","220","47135","0.0-0.0-220.0"
"-1","-1","false","a,l","l","200","true","200","1","0","0.5","2","-1","1","600","400","white","gray","3","2","2","16.641666666666424","[27.299999999995634,5.599999999998545,16.599999999998545,16.80000000000291,16.39999999999418,17.000000000007276,16.39999999999418,17.000000000007276,15.69999999999709,16.80000000000291,17.299999999995634,16.80000000000291]","12","RDK","221","47348","0.0-0.0-221.0"
"-1","-1","false","a,l","a","200","true","200","1","180","0.5","2","-1","1","600","400","white","gray","3","2","2","16.599999999999756","[16.09999999999127,16.80000000000291,16,21.80000000000291,12.5,16.5,16.799999999995634,16.80000000000291,16.599999999998545,16.69999999999709,16.60000000000582,16]","12","RDK","222","47564","0.0-0.0-222.0"
"-1","-1","false","a,l","a","200","true","200","1","180","0.5","2","-1","1","600","400","white","gray","3","2","2","18.15454545454519","[16.200000000004366,16.799999999995634,16.700000000004366,16.69999999999709,16.69999999999709,35.40000000000873,14.499999999992724,16.700000000004366,16.69999999999709,16.700000000004366,16.59999999999127]","11","RDK","223","47781","0.0-0.0-223.0"
"-1","-1","false","a,l","a","200","true","200","1","180","0.5","2","-1","1","600","400","white","gray","3","2","2","18.136363636363637","[47.69999999999709,2.400000000001455,16,15.599999999998545,17.80000000000291,16.69999999999709,16.700000000004366,16.69999999999709,16.5,16.900000000001455,16.5]","11","RDK","224","47999","0.0-0.0-224.0"
"-1","-1","false","a,l","l","200","true","200","1","0","0.5","2","-1","1","600","400","white","gray","3","2","2","16.541666666667272","[15.80000000000291,16.400000000001455,16.799999999995634,27.700000000004366,10.599999999998545,11.599999999998545,16.80000000000291,16.599999999998545,16,17.500000000007276,16.69999999999709,16]","12","RDK","225","48217","0.0-0.0-225.0"
"-1","-1","false","a,l","l","200","true","200","1","0","0.5","2","-1","1","600","400","white","gray","3","2","2","16.650000000000848","[16.30000000000291,16.700000000004366,16.69999999999709,16.799999999995634,16.700000000004366,28.5,4.599999999998545,21.099999999998545,12.30000000000291,15.80000000000291,17.599999999998545,16.700000000004366]","12","RDK","226","48431","0.0-0.0-226.0"
"-1","-1","false","a,l","l","200","true","200","1","0","0.5","2","-1","1","600","400","white","gray","3","2","2","16.650000000000244","[16.400000000001455,16.599999999998545,21.299999999995634,11.900000000008731,16.799999999995634,16.69999999999709,16.700000000004366,16.69999999999709,16.69999999999709,16.60000000000582,16.599999999998545,16.80000000000291]","12","RDK","227","48647","0.0-0.0-227.0"
"-1","-1","false","a,l","l","200","true","200","1","0","0.5","2","-1","1","600","400","white","gray","3","2","2","18.15454545454585","[15.400000000001455,17.60000000000582,16.599999999998545,16.799999999995634,35.80000000000291,13.5,17.30000000000291,16.69999999999709,16.599999999998545,16.80000000000291,16.599999999998545]","11","RDK","228","48864","0.0-0.0-228.0"
"-1","-1","false","a,l","l","200","true","200","1","0","0.5","2","-1","1","600","400","white","gray","3","2","2","18.1272727272722","[16,16.5,16.80000000000291,16.69999999999709,16.099999999998545,17.099999999998545,33.900000000001455,15.400000000001455,17.5,16.69999999999709,16.69999999999709]","11","RDK","229","49085","0.0-0.0-229.0"
"-1","-1","false","a,l","l","200","true","200","1","0","0.5","2","-1","1","600","400","white","gray","3","2","2","18.118181818182084","[16.500000000007276,46.19999999999709,2.6999999999970896,17.599999999998545,16.80000000000291,16.799999999995634,16.700000000004366,16.60000000000582,16.69999999999709,16.599999999998545,16.099999999998545]","11","RDK","230","49301","0.0-0.0-230.0"
"-1","-1","false","a,l","l","200","true","200","1","0","0.5","2","-1","1","600","400","white","gray","3","2","2","18.172727272727403","[16.39999999999418,16.700000000004366,16.60000000000582,36.19999999999709,13.19999999999709,17.400000000001455,16.700000000004366,16.59999999999127,16.60000000000582,16.799999999995634,16.700000000004366]","11","RDK","231","49514","0.0-0.0-231.0"
"-1","-1","false","a,l","a","200","true","200","1","180","0.5","2","-1","1","600","400","white","gray","3","2","2","18.163636363636627","[16.30000000000291,16.700000000004366,16.69999999999709,16.69999999999709,16.700000000004366,36.299999999995634,13.69999999999709,16.700000000004366,16.69999999999709,16.60000000000582,16.69999999999709]","11","RDK","232","49731","0.0-0.0-232.0"
"-1","-1","false","a,l","a","200","true","200","1","180","0.5","2","-1","1","600","400","white","gray","3","2","2","18.072727272726876","[15.5,16.5,36.19999999999709,13.000000000007276,17.59999999999127,16.60000000000582,16.69999999999709,16.799999999995634,16.60000000000582,16.19999999999709,17.099999999998545]","11","RDK","233","49949","0.0-0.0-233.0"
"-1","-1","false","a,l","l","200","true","200","1","0","0.5","2","-1","1","600","400","white","gray","3","2","2","24.900000000000546","[15.200000000004366,17.400000000001455,16.599999999998545,16.900000000001455,84,15.69999999999709,16.799999999995634,16.60000000000582]","8","RDK","234","50166","0.0-0.0-234.0"
"-1","-1","false","a,l","a","200","true","200","1","180","0.5","2","-1","1","600","400","white","gray","3","2","2","17.970000000000436","[41.69999999999709,5,17.30000000000291,16.599999999998545,16.700000000004366,16.39999999999418,17.099999999998545,16.400000000001455,16.80000000000291,15.700000000004366]","10","RDK","235","50381","0.0-0.0-235.0"
"-1","-1","false","a,l","a","200","true","200","1","180","0.5","2","-1","1","600","400","white","gray","3","2","2","16.42499999999988","[14.499999999992724,16.700000000004366,16.69999999999709,16.700000000004366,21.30000000000291,11.599999999998545,17.19999999999709,16.60000000000582,16.799999999995634,16.60000000000582,16.5,15.89999999999418]","12","RDK","236","50584","0.0-0.0-236.0"
"-1","-1","false","a,l","l","200","true","200","1","0","0.5","2","-1","1","600","400","white","gray","3","2","2","18.009090909090776","[14.700000000004366,16.59999999999127,16.700000000004366,16.69999999999709,16.700000000004366,35.5,14.39999999999418,16.700000000004366,16.69999999999709,16.700000000004366,16.69999999999709]","11","RDK","237","50798","0.0-0.0-237.0"
"-1","-1","false","a,l","a","200","true","200","1","180","0.5","2","-1","1","600","400","white","gray","3","2","2","18.15454545454519","[16.299999999995634,37.69999999999709,12.10000000000582,16.89999999999418,16.700000000004366,16.69999999999709,16.700000000004366,16.59999999999127,16.60000000000582,16.599999999998545,16.80000000000291]","11","RDK","238","51015","0.0-0.0-238.0"
"-1","-1","false","a,l","l","200","true","200","1","0","0.5","2","-1","1","600","400","white","gray","3","2","2","16.64166666666703","[16.30000000000291,16.700000000004366,16.69999999999709,16.60000000000582,21.799999999995634,11.5,16.69999999999709,16.700000000004366,15.799999999995634,17.60000000000582,16.69999999999709,16.599999999998545]","12","RDK","239","51232","0.0-0.0-239.0"
"-1","-1","false","a,l","a","200","true","200","1","180","0.5","2","-1","1","600","400","white","gray","3","2","2","16.583333333332728","[15.599999999998545,16.599999999998545,16.700000000004366,16.69999999999709,16.700000000004366,16.59999999999127,27.200000000004366,6.100000000005821,16.699999999989814,16.60000000000582,16.799999999995634,16.69999999999709]","12","RDK","240","51448","0.0-0.0-240.0"
"-1","-1","false","a,l","a","200","true","200","1","180","0.5","2","-1","1","600","400","white","gray","3","2","2","19.98000000000029","[16.30000000000291,58.39999999999418,7.800000000010186,17.099999999998545,16.69999999999709,16.69999999999709,16.10000000000582,17.400000000001455,16.599999999998545,16.69999999999709]","10","RDK","241","51665","0.0-0.0-241.0"
"-1","-1","false","a,l","l","200","true","200","1","0","0.5","2","-1","1","600","400","white","gray","3","2","2","18.06363636363544","[16.29999999998836,16.700000000004366,16.599999999998545,16.599999999998545,37.60000000000582,12.69999999999709,16.400000000001455,16.799999999995634,16.60000000000582,16.700000000004366,15.699999999989814]","11","RDK","242","51884","0.0-0.0-242.0"
"-1","-1","false","a,l","a","200","true","200","1","180","0.5","2","-1","1","600","400","white","gray","3","2","2","17.76000000000058","[28.000000000007276,16.19999999999709,16.599999999998545,16.599999999998545,16.80000000000291,16.69999999999709,16.69999999999709,16.60000000000582,16.700000000004366,16.69999999999709]","10","RDK","243","52099","0.0-0.0-243.0"
"-1","-1","false","a,l","l","200","true","200","1","0","0.5","2","-1","1","600","400","white","gray","3","2","2","16.441666666666908","[14.099999999998545,16.700000000004366,16.69999999999709,23.400000000001455,9.900000000001455,16.69999999999709,16.69999999999709,16.700000000004366,16.5,16.80000000000291,16.59999999999127,16.500000000007276]","12","RDK","244","52301","0.0-0.0-244.0"
"-1","-1","false","a,l","a","200","true","200","1","180","0.5","2","-1","1","600","400","white","gray","3","2","2","16.633333333332605","[15.999999999992724,16.900000000001455,16.60000000000582,16.69999999999709,16.700000000004366,16.59999999999127,23.30000000000291,9.900000000001455,16.69999999999709,16.80000000000291,16.69999999999709,16.69999999999709]","12","RDK","245","52515","0.0-0.0-245.0"
"-1","-1","false","a,l","l","200","true","200","1","0","0.5","2","-1","1","600","400","white","gray","3","2","2","18.15454545454519","[16,37.39999999999418,12.900000000001455,16.80000000000291,16.5,16.799999999995634,16.60000000000582,16.700000000004366,16.69999999999709,16.599999999998545,16.69999999999709]","11","RDK","246","52734","0.0-0.0-246.0"
"-1","-1","false","a,l","a","200","true","200","1","180","0.5","2","-1","1","600","400","white","gray","3","2","2","16.658333333333456","[16.39999999999418,16.5,16.800000000010186,22.89999999999418,10.400000000001455,22.200000000004366,11.19999999999709,16.69999999999709,16.69999999999709,16.700000000004366,16.60000000000582,16.799999999995634]","12","RDK","247","52949","0.0-0.0-247.0"
"-1","-1","false","a,l","l","200","true","200","1","0","0.5","2","-1","1","600","400","white","gray","3","2","2","16.58333333333394","[15.800000000010186,16.699999999989814,16.60000000000582,16.69999999999709,16.599999999998545,16.60000000000582,20.69999999999709,11.900000000001455,16.69999999999709,16.60000000000582,17.499999999992724,16.60000000000582]","12","RDK","248","53169","0.0-0.0-248.0"
"-1","-1","false","a,l","l","200","true","200","1","0","0.5","2","-1","1","600","400","white","gray","3","2","2","16.59166666666715","[16.200000000004366,16.5,27.69999999999709,4.80000000000291,17.099999999998545,17.099999999998545,16.400000000001455,17.099999999998545,16.5,16.80000000000291,16.700000000004366,16.19999999999709]","12","RDK","249","53384","0.0-0.0-249.0"
"-1","-1","false","a,l","l","200","true","200","1","0","0.5","2","-1","1","600","400","white","gray","3","2","2","18.15454545454585","[15.800000000010186,17.099999999998545,16.69999999999709,16.700000000004366,16.69999999999709,36.400000000001455,13.599999999998545,16.5,16.69999999999709,16.799999999995634,16.700000000004366]","11","RDK","250","53599","0.0-0.0-250.0"
"-1","-1","false","a,l","l","200","true","200","1","0","0.5","2","-1","1","600","400","white","gray","3","2","2","18.163636363636627","[46.400000000001455,3.6999999999970896,16.30000000000291,16.69999999999709,16.69999999999709,16.80000000000291,16.599999999998545,16.60000000000582,16.69999999999709,16.599999999998545,16.700000000004366]","11","RDK","251","53816","0.0-0.0-251.0"
"-1","-1","false","a,l","a","200","true","200","1","180","0.5","2","-1","1","600","400","white","gray","3","2","2","16.649999999999636","[16.299999999995634,16.60000000000582,16.799999999995634,23.5,9.80000000000291,15.599999999998545,17.599999999998545,16.900000000001455,16.69999999999709,16.599999999998545,16.700000000004366,16.69999999999709]","12","RDK","252","54033","0.0-0.0-252.0"
"-1","-1","false","a,l","l","200","true","200","1","0","0.5","2","-1","1","600","400","white","gray","3","2","2","18.31999999999971","[16.499999999992724,16.700000000004366,16.599999999998545,16.700000000004366,16.69999999999709,42.200000000004366,7.599999999998545,16.299999999995634,17.30000000000291,16.599999999998545]","10","RDK","253","54249","0.0-0.0-253.0"
"-1","-1","false","a,l","a","200","true","200","1","180","0.5","2","-1","1","600","400","white","gray","3","2","2","16.5","[14.700000000004366,16.400000000001455,30,3.400000000001455,16.099999999998545,17.39999999999418,16.60000000000582,16.799999999995634,16.69999999999709,16.60000000000582,16.19999999999709,17.099999999998545]","12","RDK","254","54452","0.0-0.0-254.0"
"-1","-1","false","a,l","a","200","true","200","1","180","0.5","2","-1","1","600","400","white","gray","3","2","2","18.15454545454519","[16.19999999999709,16.900000000001455,16.69999999999709,16.60000000000582,35.999999999992724,13.900000000001455,16.80000000000291,16.69999999999709,16.700000000004366,16.59999999999127,16.60000000000582]","11","RDK","255","54668","0.0-0.0-255.0"
"-1","-1","false","a,l","a","200","true","200","1","180","0.5","2","-1","1","600","400","white","gray","3","2","2","18.73999999999942","[38,15.400000000001455,17.30000000000291,16.59999999999127,16.700000000004366,16.60000000000582,15.799999999995634,17.599999999998545,16.69999999999709,16.69999999999709]","10","RDK","256","54884","0.0-0.0-256.0"
"-1","-1","false","a,l","l","200","true","200","1","0","0.5","2","-1","1","600","400","white","gray","3","2","2","24.925000000000182","[14.999999999992724,17.80000000000291,82.10000000000582,16.999999999992724,17.60000000000582,16.69999999999709,16.60000000000582,16.599999999998545]","8","RDK","257","55103","0.0-0.0-257.0"
"-1","-1","false","a,l","l","200","true","200","1","0","0.5","2","-1","1","600","400","white","gray","3","2","2","17.34545454545481","[29,11.799999999995634,16.5,16.80000000000291,16.700000000004366,16.599999999998545,16.599999999998545,16.099999999998545,17.30000000000291,16.700000000004366,16.69999999999709]","11","RDK","258","55318","0.0-0.0-258.0"
"-1","-1","false","a,l","a","200","true","200","1","180","0.5","2","-1","1","600","400","white","gray","3","2","2","16.650000000000244","[16.40000000000873,16.499999999992724,16.5,16.80000000000291,16.799999999995634,16.700000000004366,15.69999999999709,17.60000000000582,16.69999999999709,16.799999999995634,16.60000000000582,16.69999999999709]","12","RDK","259","55534","0.0-0.0-259.0"
"-1","-1","false","a,l","a","200","true","200","1","180","0.5","2","-1","1","600","400","white","gray","3","2","2","16.649999999999636","[16.400000000001455,16.69999999999709,16.69999999999709,16.700000000004366,16.60000000000582,21.499999999992724,11.299999999995634,17.200000000004366,16.700000000004366,16.69999999999709,16.69999999999709,16.599999999998545]","12","RDK","260","55750","0.0-0.0-260.0"
"-1","-1","false","a,l","l","200","true","200","1","0","0.5","2","-1","1","600","400","white","gray","3","2","2","18.163636363635966","[46,3.6999999999970896,16.5,16.799999999995634,16.30000000000291,17.099999999998545,16.700000000004366,16.59999999999127,16.60000000000582,16.799999999995634,16.700000000004366]","11","RDK","261","55966","0.0-0.0-261.0"
"-1","-1","false","a,l","l","200","true","200","1","0","0.5","2","-1","1","600","400","white","gray","3","2","2","16.650000000000244","[16.400000000001455,16.599999999998545,16.69999999999709,16.60000000000582,16.69999999999709,16.700000000004366,16.5,16.900000000001455,16.69999999999709,16.69999999999709,16.599999999998545,16.700000000004366]","12","RDK","262","56183","0.0-0.0-262.0"
"-1","-1","false","a,l","l","200","true","200","1","0","0.5","2","-1","1","600","400","white","gray","3","2","2","18.099999999999866","[15.69999999999709,16.69999999999709,16.700000000004366,16.69999999999709,16.69999999999709,32.60000000000582,16.69999999999709,17.099999999998545,16.900000000001455,16.60000000000582,16.69999999999709]","11","RDK","263","56400","0.0-0.0-263.0"
"-1","-1","false","a,l","a","200","true","200","1","180","0.5","2","-1","1","600","400","white","gray","3","2","2","18.15454545454519","[16.30000000000291,33.599999999998545,16.5,16.599999999998545,16.599999999998545,16.900000000001455,16.5,16.599999999998545,16.5,16.30000000000291,17.299999999995634]","11","RDK","264","56618","0.0-0.0-264.0"
"-1","-1","false","a,l","l","200","true","200","1","0","0.5","2","-1","1","600","400","white","gray","3","2","2","16.699999999999076","[16.999999999992724,16.69999999999709,16.60000000000582,16.599999999998545,16.799999999995634,20.700000000004366,12.299999999995634,17.000000000007276,16.59999999999127,16.800000000010186,16.59999999999127]","11","RDK","265","56833","0.0-0.0-265.0"
